trials.thisRepN	trials.thisTrialN	trials.thisN	trials.thisIndex	thisRow.t	notes	trial.started	num_distr	Fixation.started	target.started	mouse.started	trial.stopped	mouse.x	mouse.y	mouse.leftButton	mouse.midButton	mouse.rightButton	mouse.time	mouse.clicked_name	participant	session	date	expName	psychopyVersion	frameRate	expStart
0	0	0	0	0.2405661		0.0787	5	0.2405661	0.2405661	0.1987271	11.5854582	[0.1]	[-0.35833333333333334]	[1]	[0]	[0]	[11.385243799999444]	['target']	643016	1	2024-10-04_11h28.18.327	Session5_VisualSearch	2024.1.5	None	2024-10-04 11h28.24.659862 +0530
1	0	1	0	11.6995779		11.6063042	5	11.6995779	11.6995779	0.0569431	13.0867063	[-0.18]	[0.09166666666666666]	[1]	[0]	[0]	[1.4256902000015543]	['target']	643016	1	2024-10-04_11h28.18.327	Session5_VisualSearch	2024.1.5	None	2024-10-04 11h28.24.659862 +0530
2	0	2	0	13.2657574		13.1035144	10	13.2657574	13.2657574	0.1225646	14.9217904	[0.3416666666666667]	[-0.175]	[1]	[0]	[0]	[1.7001654000014241]	['target']	643016	1	2024-10-04_11h28.18.327	Session5_VisualSearch	2024.1.5	None	2024-10-04 11h28.24.659862 +0530
3	0	3	0	15.050528		14.939926	5	15.050528	15.050528	0.0701849	16.3884158	[-0.445]	[0.0016666666666666668]	[1]	[0]	[0]	[1.3799743999989005]	['target']	643016	1	2024-10-04_11h28.18.327	Session5_VisualSearch	2024.1.5	None	2024-10-04 11h28.24.659862 +0530
4	0	4	0	16.5182839		16.4038674	5	16.5182839	16.5182839	0.074887	17.5695296	[-0.13333333333333333]	[0.06666666666666667]	[1]	[0]	[0]	[1.0934616000013193]	['target']	643016	1	2024-10-04_11h28.18.327	Session5_VisualSearch	2024.1.5	None	2024-10-04 11h28.24.659862 +0530
5	0	5	0	17.6996552		17.5864014	5	17.6996552	17.6996552	0.0779933	19.2524298	[-0.14666666666666667]	[-0.32666666666666666]	[1]	[0]	[0]	[1.593478499999037]	['target']	643016	1	2024-10-04_11h28.18.327	Session5_VisualSearch	2024.1.5	None	2024-10-04 11h28.24.659862 +0530
6	0	6	0	19.4667		19.2682967	10	19.4667	19.4667	0.1427113	21.7185428	[0.45166666666666666]	[-0.045]	[1]	[0]	[0]	[2.310692900002323]	['target']	643016	1	2024-10-04_11h28.18.327	Session5_VisualSearch	2024.1.5	None	2024-10-04 11h28.24.659862 +0530
7	0	7	0	21.8309427		21.7364531	5	21.8309427	21.8309427	0.0752006	23.4170535	[-0.22166666666666668]	[0.485]	[1]	[0]	[0]	[1.6113465000016731]	['target']	643016	1	2024-10-04_11h28.18.327	Session5_VisualSearch	2024.1.5	None	2024-10-04 11h28.24.659862 +0530
8	0	8	0	23.531167		23.4238927	10	23.531167	23.531167	0.0724135	25.4323926	[-0.2683333333333333]	[-0.17166666666666666]	[1]	[0]	[0]	[1.9367940999982238]	['target']	643016	1	2024-10-04_11h28.18.327	Session5_VisualSearch	2024.1.5	None	2024-10-04 11h28.24.659862 +0530
9	0	9	0	25.4969905		25.4388163	5	25.4969905	25.4969905	0.0346028	27.5704735	[0.36666666666666664]	[0.043333333333333335]	[1]	[0]	[0]	[2.097223100001429]	['target']	643016	1	2024-10-04_11h28.18.327	Session5_VisualSearch	2024.1.5	None	2024-10-04 11h28.24.659862 +0530
10	0	10	0	27.7474696		27.5905508	10	27.7474696	27.7474696	0.1154193	29.2201613	[-0.3433333333333333]	[0.2833333333333333]	[1]	[0]	[0]	[1.516152600001078]	[]	643016	1	2024-10-04_11h28.18.327	Session5_VisualSearch	2024.1.5	None	2024-10-04 11h28.24.659862 +0530
11	0	11	0	29.3652088		29.2383817	5	29.3652088	29.3652088	0.0763756	30.5745885	[-0.315]	[-0.025]	[1]	[0]	[0]	[1.2616756999996142]	['target']	643016	1	2024-10-04_11h28.18.327	Session5_VisualSearch	2024.1.5	None	2024-10-04 11h28.24.659862 +0530
12	0	12	0	30.7304421		30.5975587	5	30.7304421	30.7304421	0.0931906	32.901109	[0.15833333333333333]	[0.42333333333333334]	[1]	[0]	[0]	[2.2140048000001116]	['target']	643016	1	2024-10-04_11h28.18.327	Session5_VisualSearch	2024.1.5	None	2024-10-04 11h28.24.659862 +0530
13	0	13	0	33.030885		32.917723	5	33.030885	33.030885	0.0740233	35.5501541	[0.34833333333333333]	[0.4716666666666667]	[1]	[0]	[0]	[2.5625378000004275]	['target']	643016	1	2024-10-04_11h28.18.327	Session5_VisualSearch	2024.1.5	None	2024-10-04 11h28.24.659862 +0530
14	0	14	0	35.6975595		35.5686338	5	35.6975595	35.6975595	0.0849417	37.1485842	[0.405]	[0.4666666666666667]	[1]	[0]	[0]	[1.4975096999987727]	['target']	643016	1	2024-10-04_11h28.18.327	Session5_VisualSearch	2024.1.5	None	2024-10-04 11h28.24.659862 +0530
15	0	15	0	37.2297631		37.1573564	5	37.2297631	37.2297631	0.0493231	38.4990666	[-0.03]	[0.4]	[1]	[0]	[0]	[1.2936979000005522]	['target']	643016	1	2024-10-04_11h28.18.327	Session5_VisualSearch	2024.1.5	None	2024-10-04 11h28.24.659862 +0530
16	0	16	0	38.5960309		38.5076642	5	38.5960309	38.5960309	0.048475	39.9661327	[-0.355]	[-0.09666666666666666]	[1]	[0]	[0]	[1.4107580999989295]	['target']	643016	1	2024-10-04_11h28.18.327	Session5_VisualSearch	2024.1.5	None	2024-10-04 11h28.24.659862 +0530
17	0	17	0	40.0963963		39.9837348	5	40.0963963	40.0963963	0.0753402	42.0990518	[0.33]	[0.32166666666666666]	[1]	[0]	[0]	[2.0440529999978025]	['target']	643016	1	2024-10-04_11h28.18.327	Session5_VisualSearch	2024.1.5	None	2024-10-04 11h28.24.659862 +0530
18	0	18	0	42.2117332		42.1058298	10	42.2117332	42.2117332	0.0741088	43.8300733	[-0.285]	[0.175]	[1]	[0]	[0]	[1.6510405000008177]	['target']	643016	1	2024-10-04_11h28.18.327	Session5_VisualSearch	2024.1.5	None	2024-10-04 11h28.24.659862 +0530
19	0	19	0	43.9449056		43.8369904	10	43.9449056	43.9449056	0.0719803	45.217758	[-0.07833333333333334]	[-0.125]	[1]	[0]	[0]	[1.3090464000015345]	['target']	643016	1	2024-10-04_11h28.18.327	Session5_VisualSearch	2024.1.5	None	2024-10-04 11h28.24.659862 +0530
20	0	20	0	45.4109214		45.2336299	10	45.4109214	45.4109214	0.1441208	47.3017255	[-0.4766666666666667]	[0.20166666666666666]	[1]	[0]	[0]	[1.9282063999999082]	['target']	643016	1	2024-10-04_11h28.18.327	Session5_VisualSearch	2024.1.5	None	2024-10-04 11h28.24.659862 +0530
21	0	21	0	47.4445484		47.3174417	10	47.4445484	47.4445484	0.1016033	48.9803326	[0.07]	[-0.165]	[1]	[0]	[0]	[1.5634022999984154]	['target']	643016	1	2024-10-04_11h28.18.327	Session5_VisualSearch	2024.1.5	None	2024-10-04 11h28.24.659862 +0530
22	0	22	0	49.0616037		48.9907179	5	49.0616037	49.0616037	0.0470743	50.4150469	[0.2866666666666667]	[-0.06333333333333334]	[1]	[0]	[0]	[1.378237299999455]	['target']	643016	1	2024-10-04_11h28.18.327	Session5_VisualSearch	2024.1.5	None	2024-10-04 11h28.24.659862 +0530
23	0	23	0	50.5109521		50.4308395	5	50.5109521	50.5109521	0.0563679	52.4346145	[-0.23166666666666666]	[0.355]	[1]	[0]	[0]	[1.9510728999994171]	['target']	643016	1	2024-10-04_11h28.18.327	Session5_VisualSearch	2024.1.5	None	2024-10-04 11h28.24.659862 +0530
24	0	24	0	52.5624377		52.451172	5	52.5624377	52.5624377	0.0726198	54.5805885	[-0.24833333333333332]	[-0.42333333333333334]	[1]	[0]	[0]	[2.058916699999827]	['target']	643016	1	2024-10-04_11h28.18.327	Session5_VisualSearch	2024.1.5	None	2024-10-04 11h28.24.659862 +0530
25	0	25	0	54.712767		54.5967101	5	54.712767	54.712767	0.0755605	55.9980627	[0.03166666666666667]	[-0.09166666666666666]	[1]	[0]	[0]	[1.3295450000005076]	['target']	643016	1	2024-10-04_11h28.18.327	Session5_VisualSearch	2024.1.5	None	2024-10-04 11h28.24.659862 +0530
26	0	26	0	56.2281562		56.0160498	10	56.2281562	56.2281562	0.1436185	58.0948039	[-0.26]	[-0.4066666666666667]	[1]	[0]	[0]	[1.937911000000895]	['target']	643016	1	2024-10-04_11h28.18.327	Session5_VisualSearch	2024.1.5	None	2024-10-04 11h28.24.659862 +0530
27	0	27	0	58.1597192		58.1024211	5	58.1597192	58.1597192	0.0397004	59.8956091	[0.175]	[0.25333333333333335]	[1]	[0]	[0]	[1.754332099997555]	['target']	643016	1	2024-10-04_11h28.18.327	Session5_VisualSearch	2024.1.5	None	2024-10-04 11h28.24.659862 +0530
28	0	28	0	59.9596433		59.9024609	5	59.9596433	59.9596433	0.0373418	61.3646396	[0.4116666666666667]	[0.2866666666666667]	[1]	[0]	[0]	[1.4251521000005596]	['target']	643016	1	2024-10-04_11h28.18.327	Session5_VisualSearch	2024.1.5	None	2024-10-04 11h28.24.659862 +0530
29	0	29	0	61.494225		61.3811486	5	61.494225	61.494225	0.074974	63.451333	[0.29833333333333334]	[0.16833333333333333]	[1]	[0]	[0]	[1.9986700000008568]	['target']	643016	1	2024-10-04_11h28.18.327	Session5_VisualSearch	2024.1.5	None	2024-10-04 11h28.24.659862 +0530
30	0	30	0	63.6780006		63.4695579	10	63.6780006	63.6780006	0.1382343	64.9457462	[0.15833333333333333]	[0.235]	[1]	[0]	[0]	[1.3404429000001983]	['target']	643016	1	2024-10-04_11h28.18.327	Session5_VisualSearch	2024.1.5	None	2024-10-04 11h28.24.659862 +0530
31	0	31	0	65.0251266		64.9615765	5	65.0251266	65.0251266	0.0534451	66.6625109	[-0.25166666666666665]	[-0.23166666666666666]	[1]	[0]	[0]	[1.65287299999909]	['target']	643016	1	2024-10-04_11h28.18.327	Session5_VisualSearch	2024.1.5	None	2024-10-04 11h28.24.659862 +0530
32	0	32	0	66.7766273		66.6727382	5	66.7766273	66.7766273	0.056566	68.1951429	[-0.43833333333333335]	[-0.06333333333333334]	[1]	[0]	[0]	[1.467265100000077]	['target']	643016	1	2024-10-04_11h28.18.327	Session5_VisualSearch	2024.1.5	None	2024-10-04 11h28.24.659862 +0530
33	0	33	0	68.3253094		68.2076904	10	68.3253094	68.3253094	0.1007421	70.043418	[-0.065]	[-0.4583333333333333]	[1]	[0]	[0]	[1.737876299997879]	['target']	643016	1	2024-10-04_11h28.18.327	Session5_VisualSearch	2024.1.5	None	2024-10-04 11h28.24.659862 +0530
34	0	34	0	70.108135		70.0502136	5	70.108135	70.108135	0.035703	71.5129476	[0.19333333333333333]	[0.25666666666666665]	[1]	[0]	[0]	[1.4274241000020993]	['target']	643016	1	2024-10-04_11h28.18.327	Session5_VisualSearch	2024.1.5	None	2024-10-04 11h28.24.659862 +0530
35	0	35	0	71.643135		71.5321271	5	71.643135	71.643135	0.0754022	72.7291176	[0.135]	[0.36666666666666664]	[1]	[0]	[0]	[1.126331300001766]	['target']	643016	1	2024-10-04_11h28.18.327	Session5_VisualSearch	2024.1.5	None	2024-10-04 11h28.24.659862 +0530
36	0	36	0	72.8588543		72.7441967	5	72.8588543	72.8588543	0.0887014	73.9977998	[-0.11]	[0.21166666666666667]	[1]	[0]	[0]	[1.1684425000021292]	['target']	643016	1	2024-10-04_11h28.18.327	Session5_VisualSearch	2024.1.5	None	2024-10-04 11h28.24.659862 +0530
37	0	37	0	74.1076008		74.0167641	10	74.1076008	74.1076008	0.0685521	75.8950955	[-0.2783333333333333]	[-0.25166666666666665]	[1]	[0]	[0]	[1.8120233000008739]	['target']	643016	1	2024-10-04_11h28.18.327	Session5_VisualSearch	2024.1.5	None	2024-10-04 11h28.24.659862 +0530
38	0	38	0	76.0239388		75.9107931	10	76.0239388	76.0239388	0.0871209	78.0756746	[0.17]	[0.4766666666666667]	[1]	[0]	[0]	[2.081701700000849]	['target']	643016	1	2024-10-04_11h28.18.327	Session5_VisualSearch	2024.1.5	None	2024-10-04 11h28.24.659862 +0530
39	0	39	0	78.1403738		78.0835124	5	78.1403738	78.1403738	0.0372192	79.7269029	[0.435]	[0.3333333333333333]	[1]	[0]	[0]	[1.6067511000001105]	['target']	643016	1	2024-10-04_11h28.18.327	Session5_VisualSearch	2024.1.5	None	2024-10-04 11h28.24.659862 +0530
40	0	40	0	79.8077133		79.7343428	5	79.8077133	79.8077133	0.0468228	81.2610773	[-0.36]	[0.035]	[1]	[0]	[0]	[1.4801734000029683]	['target']	643016	1	2024-10-04_11h28.18.327	Session5_VisualSearch	2024.1.5	None	2024-10-04 11h28.24.659862 +0530
41	0	41	0	81.3909941		81.2768971	5	81.3909941	81.3909941	0.075134	82.7133725	[-0.24833333333333332]	[-0.045]	[1]	[0]	[0]	[1.364129599998705]	['target']	643016	1	2024-10-04_11h28.18.327	Session5_VisualSearch	2024.1.5	None	2024-10-04 11h28.24.659862 +0530
42	0	42	0	82.8594277		82.7310988	5	82.8594277	82.8594277	0.0765252	84.2755101	[-0.30833333333333335]	[0.31666666666666665]	[1]	[0]	[0]	[1.4716871999989962]	['target']	643016	1	2024-10-04_11h28.18.327	Session5_VisualSearch	2024.1.5	None	2024-10-04 11h28.24.659862 +0530
43	0	43	0	84.4067883		84.2853432	10	84.4067883	84.4067883	0.083101	87.1283382	[0.19833333333333333]	[-0.4816666666666667]	[1]	[0]	[0]	[2.7618550999977742]	[]	643016	1	2024-10-04_11h28.18.327	Session5_VisualSearch	2024.1.5	None	2024-10-04 11h28.24.659862 +0530
44	0	44	0	87.2724244		87.1423711	10	87.2724244	87.2724244	0.1038425	89.6761957	[-0.365]	[0.43166666666666664]	[1]	[0]	[0]	[2.4329592999965826]	['target']	643016	1	2024-10-04_11h28.18.327	Session5_VisualSearch	2024.1.5	None	2024-10-04 11h28.24.659862 +0530
45	0	45	0	89.7889877		89.6848799	10	89.7889877	89.7889877	0.0723172	91.3114465	[0.10833333333333334]	[0.17]	[1]	[0]	[0]	[1.5549922000027436]	['target']	643016	1	2024-10-04_11h28.18.327	Session5_VisualSearch	2024.1.5	None	2024-10-04 11h28.24.659862 +0530
46	0	46	0	91.5233587		91.3277354	10	91.5233587	91.5233587	0.1403439	92.7434958	[-0.013333333333333334]	[-0.22166666666666668]	[1]	[0]	[0]	[1.2781205999999656]	['target']	643016	1	2024-10-04_11h28.18.327	Session5_VisualSearch	2024.1.5	None	2024-10-04 11h28.24.659862 +0530
47	0	47	0	92.8917568		92.7618744	5	92.8917568	92.8917568	0.0771036	94.6744459	[0.36333333333333334]	[-0.375]	[1]	[0]	[0]	[1.8403346000013698]	['target']	643016	1	2024-10-04_11h28.18.327	Session5_VisualSearch	2024.1.5	None	2024-10-04 11h28.24.659862 +0530
48	0	48	0	94.7378305		94.6890804	5	94.7378305	94.7378305	0.0290774	96.1261619	[0.2816666666666667]	[-0.4266666666666667]	[1]	[0]	[0]	[1.4094710999997915]	['target']	643016	1	2024-10-04_11h28.18.327	Session5_VisualSearch	2024.1.5	None	2024-10-04 11h28.24.659862 +0530
49	0	49	0	96.2725096		96.1420047	10	96.2725096	96.2725096	0.1072751	98.4098221	[-0.135]	[0.4683333333333333]	[1]	[0]	[0]	[2.164286399998673]	['target']	643016	1	2024-10-04_11h28.18.327	Session5_VisualSearch	2024.1.5	None	2024-10-04 11h28.24.659862 +0530
50	0	50	0	98.5213832		98.4268787	5	98.5213832	98.5213832	0.0754787	100.1766904	[0.07166666666666667]	[-0.36666666666666664]	[1]	[0]	[0]	[1.6783308000012767]	['target']	643016	1	2024-10-04_11h28.18.327	Session5_VisualSearch	2024.1.5	None	2024-10-04 11h28.24.659862 +0530
51	0	51	0	100.3890209		100.1932644	10	100.3890209	100.3890209	0.13864	102.7749119	[-0.415]	[0.26]	[1]	[0]	[0]	[2.4449327000002086]	['target']	643016	1	2024-10-04_11h28.18.327	Session5_VisualSearch	2024.1.5	None	2024-10-04 11h28.24.659862 +0530
52	0	52	0	102.90621		102.7918465	5	102.90621	102.90621	0.0780837	105.8759684	[0.07833333333333334]	[-0.09833333333333333]	[1]	[0]	[0]	[3.0110297999999602]	['target']	643016	1	2024-10-04_11h28.18.327	Session5_VisualSearch	2024.1.5	None	2024-10-04 11h28.24.659862 +0530
53	0	53	0	106.1052746		105.8920138	10	106.1052746	106.1052746	0.1519363	109.1049738	[0.4483333333333333]	[0.48]	[1]	[0]	[0]	[3.0635956000005535]	[]	643016	1	2024-10-04_11h28.18.327	Session5_VisualSearch	2024.1.5	None	2024-10-04 11h28.24.659862 +0530
54	0	54	0	109.203068		109.1122472	10	109.203068	109.203068	0.0639686	111.3718945	[0.12]	[0.16166666666666665]	[1]	[0]	[0]	[2.1963031999985105]	['target']	643016	1	2024-10-04_11h28.18.327	Session5_VisualSearch	2024.1.5	None	2024-10-04 11h28.24.659862 +0530
55	0	55	0	111.4361572		111.3784433	5	111.4361572	111.4361572	0.0367665	112.7241091	[0.08166666666666667]	[0.405]	[1]	[0]	[0]	[1.3089079999990645]	['target']	643016	1	2024-10-04_11h28.18.327	Session5_VisualSearch	2024.1.5	None	2024-10-04 11h28.24.659862 +0530
56	0	56	0	112.8540211		112.7432629	5	112.8540211	112.8540211	0.0769912	114.6234957	[0.12833333333333333]	[0.105]	[1]	[0]	[0]	[1.8086135999983526]	['target']	643016	1	2024-10-04_11h28.18.327	Session5_VisualSearch	2024.1.5	None	2024-10-04 11h28.24.659862 +0530
57	0	57	0	114.7187367		114.6390372	5	114.7187367	114.7187367	0.056702	116.1397621	[0.07333333333333333]	[0.275]	[1]	[0]	[0]	[1.4476450000001932]	['target']	643016	1	2024-10-04_11h28.18.327	Session5_VisualSearch	2024.1.5	None	2024-10-04 11h28.24.659862 +0530
58	0	58	0	116.2524924		116.1555175	5	116.2524924	116.2524924	0.0716159	117.8237724	[-0.485]	[0.08166666666666667]	[1]	[0]	[0]	[1.6002341999992495]	['target']	643016	1	2024-10-04_11h28.18.327	Session5_VisualSearch	2024.1.5	None	2024-10-04 11h28.24.659862 +0530
59	0	59	0	117.9519402		117.8418672	5	117.9519402	117.9519402	0.0720681	119.0595914	[-0.475]	[0.22333333333333333]	[1]	[0]	[0]	[1.147625400000834]	['target']	643016	1	2024-10-04_11h28.18.327	Session5_VisualSearch	2024.1.5	None	2024-10-04 11h28.24.659862 +0530
60	0	60	0	119.2708554		119.0753302	10	119.2708554	119.2708554	0.1402799	122.888845	[-0.285]	[-0.16]	[1]	[0]	[0]	[3.6749901000002865]	['target']	643016	1	2024-10-04_11h28.18.327	Session5_VisualSearch	2024.1.5	None	2024-10-04 11h28.24.659862 +0530
61	0	61	0	123.0016292		122.9065078	5	123.0016292	123.0016292	0.0708051	124.7364586	[0.35833333333333334]	[-0.31166666666666665]	[1]	[0]	[0]	[1.765157600002567]	['target']	643016	1	2024-10-04_11h28.18.327	Session5_VisualSearch	2024.1.5	None	2024-10-04 11h28.24.659862 +0530
62	0	62	0	124.8013088		124.7432414	5	124.8013088	124.8013088	0.037332	127.190809	[-0.08666666666666667]	[0.4816666666666667]	[1]	[0]	[0]	[2.4104903000006743]	['target']	643016	1	2024-10-04_11h28.18.327	Session5_VisualSearch	2024.1.5	None	2024-10-04 11h28.24.659862 +0530
63	0	63	0	127.3339188		127.2094673	10	127.3339188	127.3339188	0.1000582	128.9719819	[-0.38166666666666665]	[0.415]	[1]	[0]	[0]	[1.6654388999995717]	['target']	643016	1	2024-10-04_11h28.18.327	Session5_VisualSearch	2024.1.5	None	2024-10-04 11h28.24.659862 +0530
64	0	64	0	129.2023427		128.9878439	10	129.2023427	129.2023427	0.1518578	131.0700698	[-0.315]	[-0.09166666666666666]	[1]	[0]	[0]	[1.9344597999988764]	['target']	643016	1	2024-10-04_11h28.18.327	Session5_VisualSearch	2024.1.5	None	2024-10-04 11h28.24.659862 +0530
65	0	65	0	131.2344578		131.0786382	10	131.2344578	131.2344578	0.1094385	133.4387902	[0.27]	[0.38]	[1]	[0]	[0]	[2.2515515999984927]	['target']	643016	1	2024-10-04_11h28.18.327	Session5_VisualSearch	2024.1.5	None	2024-10-04 11h28.24.659862 +0530
66	0	66	0	133.5689739		133.4552164	5	133.5689739	133.5689739	0.0728461	135.3049653	[0.3516666666666667]	[0.37833333333333335]	[1]	[0]	[0]	[1.778441299997212]	['target']	643016	1	2024-10-04_11h28.18.327	Session5_VisualSearch	2024.1.5	None	2024-10-04 11h28.24.659862 +0530
67	0	67	0	135.4339403		135.3212017	5	135.4339403	135.4339403	0.0738243	136.9067971	[-0.445]	[-0.375]	[1]	[0]	[0]	[1.5160168000002159]	['target']	643016	1	2024-10-04_11h28.18.327	Session5_VisualSearch	2024.1.5	None	2024-10-04 11h28.24.659862 +0530
68	0	68	0	137.017058		136.9255604	5	137.017058	137.017058	0.0690983	138.5705423	[0.09333333333333334]	[0.07666666666666666]	[1]	[0]	[0]	[1.5786846999981208]	['target']	643016	1	2024-10-04_11h28.18.327	Session5_VisualSearch	2024.1.5	None	2024-10-04 11h28.24.659862 +0530
69	0	69	0	138.7323998		138.5851708	10	138.7323998	138.7323998	0.1250323	140.451228	[-0.475]	[-0.36333333333333334]	[1]	[0]	[0]	[1.7449758000002475]	['target']	643016	1	2024-10-04_11h28.18.327	Session5_VisualSearch	2024.1.5	None	2024-10-04 11h28.24.659862 +0530
70	0	70	0	140.5658594		140.458503	10	140.5658594	140.5658594	0.068167	142.4543918	[0.16333333333333333]	[-0.44333333333333336]	[1]	[0]	[0]	[1.927627199998824]	['target']	643016	1	2024-10-04_11h28.18.327	Session5_VisualSearch	2024.1.5	None	2024-10-04 11h28.24.659862 +0530
71	0	71	0	142.5989379		142.4724341	10	142.5989379	142.5989379	0.0943251	144.3038326	[-0.015]	[0.255]	[1]	[0]	[0]	[1.738960999999108]	['target']	643016	1	2024-10-04_11h28.18.327	Session5_VisualSearch	2024.1.5	None	2024-10-04 11h28.24.659862 +0530
72	0	72	0	144.5157928		144.3202235	10	144.5157928	144.5157928	0.1414609	146.4033319	[0.47333333333333333]	[-0.305]	[1]	[0]	[0]	[1.944578200000251]	['target']	643016	1	2024-10-04_11h28.18.327	Session5_VisualSearch	2024.1.5	None	2024-10-04 11h28.24.659862 +0530
73	0	73	0	146.5332437		146.4188695	5	146.5332437	146.5332437	0.0735471	148.6366619	[-0.41833333333333333]	[0.16833333333333333]	[1]	[0]	[0]	[2.1478518999974767]	['target']	643016	1	2024-10-04_11h28.18.327	Session5_VisualSearch	2024.1.5	None	2024-10-04 11h28.24.659862 +0530
74	0	74	0	148.7643567		148.655989	10	148.7643567	148.7643567	0.0823386	151.8345097	[0.16833333333333333]	[0.4683333333333333]	[1]	[0]	[0]	[3.0990535999990243]	['target']	643016	1	2024-10-04_11h28.18.327	Session5_VisualSearch	2024.1.5	None	2024-10-04 11h28.24.659862 +0530
75	0	75	0	151.9308654		151.8412769	10	151.9308654	151.9308654	0.0663439	153.5690927	[-0.21166666666666667]	[-0.075]	[1]	[0]	[0]	[1.6619174999977986]	['target']	643016	1	2024-10-04_11h28.18.327	Session5_VisualSearch	2024.1.5	None	2024-10-04 11h28.24.659862 +0530
76	0	76	0	153.6641135		153.5856553	5	153.6641135	153.6641135	0.0646663	155.6860194	[0.31833333333333336]	[-0.335]	[1]	[0]	[0]	[2.037755699999252]	['target']	643016	1	2024-10-04_11h28.18.327	Session5_VisualSearch	2024.1.5	None	2024-10-04 11h28.24.659862 +0530
77	0	77	0	155.7635021		155.7009044	5	155.7635021	155.7635021	0.0465029	157.4684556	[-0.13333333333333333]	[0.028333333333333332]	[1]	[0]	[0]	[1.7239991999995254]	['target']	643016	1	2024-10-04_11h28.18.327	Session5_VisualSearch	2024.1.5	None	2024-10-04 11h28.24.659862 +0530
78	0	78	0	157.5979891		157.4846527	5	157.5979891	157.5979891	0.0725975	159.2695525	[-0.4083333333333333]	[0.29833333333333334]	[1]	[0]	[0]	[1.7154742000020633]	['target']	643016	1	2024-10-04_11h28.18.327	Session5_VisualSearch	2024.1.5	None	2024-10-04 11h28.24.659862 +0530
79	0	79	0	159.4971704		159.2891878	10	159.4971704	159.4971704	0.14208	160.8537434	[0.23166666666666666]	[0.435]	[1]	[0]	[0]	[1.4240040999975463]	['target']	643016	1	2024-10-04_11h28.18.327	Session5_VisualSearch	2024.1.5	None	2024-10-04 11h28.24.659862 +0530
80	0	80	0	160.9812368		160.8698781	5	160.9812368	160.9812368	0.0725575	163.0511184	[0.12333333333333334]	[-0.3383333333333333]	[1]	[0]	[0]	[2.1107276000002457]	['target']	643016	1	2024-10-04_11h28.18.327	Session5_VisualSearch	2024.1.5	None	2024-10-04 11h28.24.659862 +0530
81	0	81	0	163.195942		163.0686769	10	163.195942	163.195942	0.1019781	164.3976289	[-0.07]	[-0.225]	[1]	[0]	[0]	[1.2311783000004652]	['target']	643016	1	2024-10-04_11h28.18.327	Session5_VisualSearch	2024.1.5	None	2024-10-04 11h28.24.659862 +0530
82	0	82	0	164.4625266		164.4041559	5	164.4625266	164.4625266	0.0370587	166.6490111	[0.3983333333333333]	[0.27666666666666667]	[1]	[0]	[0]	[2.2084934000013163]	['target']	643016	1	2024-10-04_11h28.18.327	Session5_VisualSearch	2024.1.5	None	2024-10-04 11h28.24.659862 +0530
83	0	83	0	166.7297081		166.6584808	5	166.7297081	166.7297081	0.0470933	168.4817136	[0.08333333333333333]	[-0.01]	[1]	[0]	[0]	[1.7775942999978724]	['target']	643016	1	2024-10-04_11h28.18.327	Session5_VisualSearch	2024.1.5	None	2024-10-04 11h28.24.659862 +0530
84	0	84	0	168.5956863		168.4923912	5	168.5956863	168.5956863	0.0723158	170.2505417	[-0.056666666666666664]	[0.3283333333333333]	[1]	[0]	[0]	[1.6882057000002533]	['target']	643016	1	2024-10-04_11h28.18.327	Session5_VisualSearch	2024.1.5	None	2024-10-04 11h28.24.659862 +0530
85	0	85	0	170.344954		170.2672504	5	170.344954	170.344954	0.0494181	172.3837339	[0.48333333333333334]	[-0.20833333333333334]	[1]	[0]	[0]	[2.068455199998425]	['target']	643016	1	2024-10-04_11h28.18.327	Session5_VisualSearch	2024.1.5	None	2024-10-04 11h28.24.659862 +0530
86	0	86	0	172.5948554		172.4007585	10	172.5948554	172.5948554	0.1392685	174.8972191	[0.49166666666666664]	[0.4666666666666667]	[1]	[0]	[0]	[2.3604873000003863]	['target']	643016	1	2024-10-04_11h28.18.327	Session5_VisualSearch	2024.1.5	None	2024-10-04 11h28.24.659862 +0530
87	0	87	0	174.9943842		174.9054033	10	174.9943842	174.9943842	0.0646957	177.1133424	[-0.21166666666666667]	[-0.0016666666666666668]	[1]	[0]	[0]	[2.144293399996968]	['target']	643016	1	2024-10-04_11h28.18.327	Session5_VisualSearch	2024.1.5	None	2024-10-04 11h28.24.659862 +0530
88	0	88	0	177.2276993		177.1208641	10	177.2276993	177.2276993	0.0796176	178.8334963	[-0.125]	[0.16166666666666665]	[1]	[0]	[0]	[1.6334466999978758]	['target']	643016	1	2024-10-04_11h28.18.327	Session5_VisualSearch	2024.1.5	None	2024-10-04 11h28.24.659862 +0530
89	0	89	0	178.9635454		178.8501283	5	178.9635454	178.9635454	0.0759112	180.4839517	[-0.4666666666666667]	[0.11333333333333333]	[1]	[0]	[0]	[1.559951800001727]	['target']	643016	1	2024-10-04_11h28.18.327	Session5_VisualSearch	2024.1.5	None	2024-10-04 11h28.24.659862 +0530
90	0	90	0	180.6119593		180.5007744	5	180.6119593	180.6119593	0.072566	182.2129156	[0.18166666666666667]	[0.17]	[1]	[0]	[0]	[1.641702400000213]	['target']	643016	1	2024-10-04_11h28.18.327	Session5_VisualSearch	2024.1.5	None	2024-10-04 11h28.24.659862 +0530
91	0	91	0	182.3274673		182.2223256	10	182.3274673	182.3274673	0.0748928	185.5976487	[-0.44666666666666666]	[0.40166666666666667]	[1]	[0]	[0]	[3.300841299998865]	['target']	643016	1	2024-10-04_11h28.18.327	Session5_VisualSearch	2024.1.5	None	2024-10-04 11h28.24.659862 +0530
92	0	92	0	185.7432348		185.6133298	10	185.7432348	185.7432348	0.1123974	187.7810613	[0.2783333333333333]	[0.05]	[1]	[0]	[0]	[2.0588933000035468]	['target']	643016	1	2024-10-04_11h28.18.327	Session5_VisualSearch	2024.1.5	None	2024-10-04 11h28.24.659862 +0530
93	0	93	0	187.9428915		187.7972373	10	187.9428915	187.9428915	0.1141651	189.1812748	[0.10166666666666667]	[0.43666666666666665]	[1]	[0]	[0]	[1.2733826999974553]	['target']	643016	1	2024-10-04_11h28.18.327	Session5_VisualSearch	2024.1.5	None	2024-10-04 11h28.24.659862 +0530
94	0	94	0	189.3280716		189.1988713	5	189.3280716	189.3280716	0.0848546	190.931723	[-0.29]	[0.11166666666666666]	[1]	[0]	[0]	[1.6519986999992398]	['target']	643016	1	2024-10-04_11h28.18.327	Session5_VisualSearch	2024.1.5	None	2024-10-04 11h28.24.659862 +0530
95	0	95	0	191.0604797		190.947787	5	191.0604797	191.0604797	0.0715289	192.5977708	[-0.19333333333333333]	[0.035]	[1]	[0]	[0]	[1.5805572999997821]	['target']	643016	1	2024-10-04_11h28.18.327	Session5_VisualSearch	2024.1.5	None	2024-10-04 11h28.24.659862 +0530
96	0	96	0	192.7089514		192.6134676	5	192.7089514	192.7089514	0.0725487	194.1802139	[0.22166666666666668]	[-0.14666666666666667]	[1]	[0]	[0]	[1.4980675000006158]	['target']	643016	1	2024-10-04_11h28.18.327	Session5_VisualSearch	2024.1.5	None	2024-10-04 11h28.24.659862 +0530
97	0	97	0	194.3103104		194.1956895	5	194.3103104	194.3103104	0.0850379	195.8797281	[0.48]	[0.23833333333333334]	[1]	[0]	[0]	[1.6023148000022047]	['target']	643016	1	2024-10-04_11h28.18.327	Session5_VisualSearch	2024.1.5	None	2024-10-04 11h28.24.659862 +0530
98	0	98	0	196.0933318		195.8978938	10	196.0933318	196.0933318	0.1403095	197.8279971	[0.04833333333333333]	[-0.06833333333333333]	[1]	[0]	[0]	[1.7941501999994216]	['target']	643016	1	2024-10-04_11h28.18.327	Session5_VisualSearch	2024.1.5	None	2024-10-04 11h28.24.659862 +0530
99	0	99	0	197.9248951		197.8350256	10	197.9248951	197.9248951	0.0683394	199.6805467	[0.15166666666666667]	[0.39166666666666666]	[1]	[0]	[0]	[1.7770170000003418]	['target']	643016	1	2024-10-04_11h28.18.327	Session5_VisualSearch	2024.1.5	None	2024-10-04 11h28.24.659862 +0530
100	0	100	0	199.8928678		199.6983826	10	199.8928678	199.8928678	0.1392209	201.6145665	[0.29833333333333334]	[-0.09833333333333333]	[1]	[0]	[0]	[1.7798197000010987]	['target']	643016	1	2024-10-04_11h28.18.327	Session5_VisualSearch	2024.1.5	None	2024-10-04 11h28.24.659862 +0530
101	0	101	0	201.7247253		201.6323533	5	201.7247253	201.7247253	0.0703138	203.0962416	[0.2683333333333333]	[0.39166666666666666]	[1]	[0]	[0]	[1.3957912000005308]	['target']	643016	1	2024-10-04_11h28.18.327	Session5_VisualSearch	2024.1.5	None	2024-10-04 11h28.24.659862 +0530
102	0	102	0	203.2255396		203.1148634	10	203.2255396	203.2255396	0.0849674	205.5954307	[-0.25833333333333336]	[0.42]	[1]	[0]	[0]	[2.3984000999989803]	['target']	643016	1	2024-10-04_11h28.18.327	Session5_VisualSearch	2024.1.5	None	2024-10-04 11h28.24.659862 +0530
103	0	103	0	205.8439803		205.6116782	10	205.8439803	205.8439803	0.1717103	207.2825928	[0.05333333333333334]	[-0.355]	[1]	[0]	[0]	[1.502876099999412]	['target']	643016	1	2024-10-04_11h28.18.327	Session5_VisualSearch	2024.1.5	None	2024-10-04 11h28.24.659862 +0530
104	0	104	0	207.525993		207.3099229	10	207.525993	207.525993	0.1490684	209.0624007	[-0.06166666666666667]	[-0.058333333333333334]	[1]	[0]	[0]	[1.6076623999979347]	['target']	643016	1	2024-10-04_11h28.18.327	Session5_VisualSearch	2024.1.5	None	2024-10-04 11h28.24.659862 +0530
105	0	105	0	209.1921681		209.0805304	5	209.1921681	209.1921681	0.0787089	210.5296	[-0.10666666666666667]	[0.27166666666666667]	[1]	[0]	[0]	[1.3751401999979862]	['target']	643016	1	2024-10-04_11h28.18.327	Session5_VisualSearch	2024.1.5	None	2024-10-04 11h28.24.659862 +0530
106	0	106	0	210.69148		210.5447729	5	210.69148	210.69148	0.0960957	212.9943121	[-0.18166666666666667]	[-0.011666666666666667]	[1]	[0]	[0]	[2.3558524000000034]	['target']	643016	1	2024-10-04_11h28.18.327	Session5_VisualSearch	2024.1.5	None	2024-10-04 11h28.24.659862 +0530
107	0	107	0	213.106458		213.0123797	5	213.106458	213.106458	0.0745382	214.5920614	[0.04]	[-0.13833333333333334]	[1]	[0]	[0]	[1.509995100001106]	['target']	643016	1	2024-10-04_11h28.18.327	Session5_VisualSearch	2024.1.5	None	2024-10-04 11h28.24.659862 +0530
108	0	108	0	214.6561199		214.6052544	5	214.6561199	214.6561199	0.03476	216.4105232	[0.09166666666666666]	[0.445]	[1]	[0]	[0]	[1.7719878000025346]	['target']	643016	1	2024-10-04_11h28.18.327	Session5_VisualSearch	2024.1.5	None	2024-10-04 11h28.24.659862 +0530
109	0	109	0	216.5406112		216.4282617	5	216.5406112	216.5406112	0.0761113	218.3105602	[0.05333333333333334]	[-0.19333333333333333]	[1]	[0]	[0]	[1.8095540999966033]	['target']	643016	1	2024-10-04_11h28.18.327	Session5_VisualSearch	2024.1.5	None	2024-10-04 11h28.24.659862 +0530
110	0	110	0	218.457548		218.3305698	5	218.457548	218.457548	0.0876872	219.9606575	[-0.355]	[0.07]	[1]	[0]	[0]	[1.5490377999994962]	['target']	643016	1	2024-10-04_11h28.18.327	Session5_VisualSearch	2024.1.5	None	2024-10-04 11h28.24.659862 +0530
111	0	111	0	220.1226222		219.9778108	10	220.1226222	220.1226222	0.1117305	221.6748238	[0.018333333333333333]	[0.43166666666666664]	[1]	[0]	[0]	[1.587836900002003]	['target']	643016	1	2024-10-04_11h28.18.327	Session5_VisualSearch	2024.1.5	None	2024-10-04 11h28.24.659862 +0530
112	0	112	0	221.7722315		221.6825524	10	221.7722315	221.7722315	0.0685915	223.0584989	[0.15333333333333332]	[0.22666666666666666]	[1]	[0]	[0]	[1.3083240000014484]	['target']	643016	1	2024-10-04_11h28.18.327	Session5_VisualSearch	2024.1.5	None	2024-10-04 11h28.24.659862 +0530
113	0	113	0	223.2055328		223.0674916	10	223.2055328	223.2055328	0.0916608	225.2928888	[-0.475]	[-0.055]	[1]	[0]	[0]	[2.1348742000009224]	['target']	643016	1	2024-10-04_11h28.18.327	Session5_VisualSearch	2024.1.5	None	2024-10-04 11h28.24.659862 +0530
114	0	114	0	225.4237556		225.3091745	5	225.4237556	225.4237556	0.0762308	227.1100264	[-0.445]	[0.23333333333333334]	[1]	[0]	[0]	[1.728657399999065]	['target']	643016	1	2024-10-04_11h28.18.327	Session5_VisualSearch	2024.1.5	None	2024-10-04 11h28.24.659862 +0530
115	0	115	0	227.3228176		227.1268829	10	227.3228176	227.3228176	0.1404801	229.1919258	[0.30833333333333335]	[0.06666666666666667]	[1]	[0]	[0]	[1.9281792000001587]	['target']	643016	1	2024-10-04_11h28.18.327	Session5_VisualSearch	2024.1.5	None	2024-10-04 11h28.24.659862 +0530
116	0	116	0	229.2875501		229.2085934	5	229.2875501	229.2875501	0.0595252	229.5128064	[0.30833333333333335]	[0.06666666666666667]	[1]	[0]	[0]	[0.24798569999984466]	[]	643016	1	2024-10-04_11h28.18.327	Session5_VisualSearch	2024.1.5	None	2024-10-04 11h28.24.659862 +0530
117	0	117	0	229.7554031		229.5323062	10	229.7554031	229.7554031	0.1499748	231.3391881	[-0.385]	[0.43833333333333335]	[1]	[0]	[0]	[1.6594685999989451]	['target']	643016	1	2024-10-04_11h28.18.327	Session5_VisualSearch	2024.1.5	None	2024-10-04 11h28.24.659862 +0530
118	0	118	0	231.4701427		231.3505565	10	231.4701427	231.4701427	0.0829984	232.8921266	[0.0]	[0.43833333333333335]	[1]	[0]	[0]	[1.4593282000023464]	['target']	643016	1	2024-10-04_11h28.18.327	Session5_VisualSearch	2024.1.5	None	2024-10-04 11h28.24.659862 +0530
119	0	119	0	233.0213099		232.9081818	5	233.0213099	233.0213099	0.0754363	234.2228561	[-0.075]	[0.3016666666666667]	[1]	[0]	[0]	[1.2432268999982625]	['target']	643016	1	2024-10-04_11h28.18.327	Session5_VisualSearch	2024.1.5	None	2024-10-04 11h28.24.659862 +0530
120	0	120	0	234.3041064		234.2322201	5	234.3041064	234.3041064	0.0473331	235.9736804	[-0.395]	[-0.115]	[1]	[0]	[0]	[1.6952721000016027]	['target']	643016	1	2024-10-04_11h28.18.327	Session5_VisualSearch	2024.1.5	None	2024-10-04 11h28.24.659862 +0530
121	0	121	0	236.0540781		235.9821603	5	236.0540781	236.0540781	0.0494623	237.4606073	[0.11166666666666666]	[0.26666666666666666]	[1]	[0]	[0]	[1.4303186999968602]	['target']	643016	1	2024-10-04_11h28.18.327	Session5_VisualSearch	2024.1.5	None	2024-10-04 11h28.24.659862 +0530
122	0	122	0	237.6032615		237.470445	10	237.6032615	237.6032615	0.0890007	240.1221846	[-0.051666666666666666]	[0.06166666666666667]	[1]	[0]	[0]	[2.5649974000007205]	['target']	643016	1	2024-10-04_11h28.18.327	Session5_VisualSearch	2024.1.5	None	2024-10-04 11h28.24.659862 +0530
123	0	123	0	240.219316		240.1290191	10	240.219316	240.219316	0.0677908	241.8769286	[-0.30833333333333335]	[0.3883333333333333]	[1]	[0]	[0]	[1.6803696999995736]	['target']	643016	1	2024-10-04_11h28.18.327	Session5_VisualSearch	2024.1.5	None	2024-10-04 11h28.24.659862 +0530
124	0	124	0	242.0043633		241.8933425	5	242.0043633	242.0043633	0.0716843	245.3084488	[0.3383333333333333]	[-0.12166666666666667]	[1]	[0]	[0]	[3.3456005999978515]	['target']	643016	1	2024-10-04_11h28.18.327	Session5_VisualSearch	2024.1.5	None	2024-10-04 11h28.24.659862 +0530
125	0	125	0	245.4387438		245.3253187	5	245.4387438	245.4387438	0.072288	246.5590068	[-0.021666666666666667]	[0.26]	[1]	[0]	[0]	[1.1630807000001369]	['target']	643016	1	2024-10-04_11h28.18.327	Session5_VisualSearch	2024.1.5	None	2024-10-04 11h28.24.659862 +0530
126	0	126	0	246.7869121		246.5752809	10	246.7869121	246.7869121	0.1429533	248.0406203	[0.06166666666666667]	[0.46166666666666667]	[1]	[0]	[0]	[1.3246902999999293]	['target']	643016	1	2024-10-04_11h28.18.327	Session5_VisualSearch	2024.1.5	None	2024-10-04 11h28.24.659862 +0530
127	0	127	0	248.1688151		248.0563553	5	248.1688151	248.1688151	0.0730361	250.3232889	[0.03833333333333333]	[-0.2866666666666667]	[1]	[0]	[0]	[2.197585699999763]	['target']	643016	1	2024-10-04_11h28.18.327	Session5_VisualSearch	2024.1.5	None	2024-10-04 11h28.24.659862 +0530
128	0	128	0	250.4550864		250.341852	5	250.4550864	250.4550864	0.0770186	251.9892969	[0.10833333333333334]	[0.33166666666666667]	[1]	[0]	[0]	[1.5755941000024904]	['target']	643016	1	2024-10-04_11h28.18.327	Session5_VisualSearch	2024.1.5	None	2024-10-04 11h28.24.659862 +0530
129	0	129	0	252.2024088		252.0051403	10	252.2024088	252.2024088	0.1397427	254.4544473	[-0.17833333333333334]	[-0.4216666666666667]	[1]	[0]	[0]	[2.314124799999263]	['target']	643016	1	2024-10-04_11h28.18.327	Session5_VisualSearch	2024.1.5	None	2024-10-04 11h28.24.659862 +0530
130	0	130	0	254.5676696		254.4629166	10	254.5676696	254.5676696	0.073992	256.6721849	[-0.375]	[0.23666666666666666]	[1]	[0]	[0]	[2.1354738000009093]	['target']	643016	1	2024-10-04_11h28.18.327	Session5_VisualSearch	2024.1.5	None	2024-10-04 11h28.24.659862 +0530
131	0	131	0	256.8854187		256.6886016	10	256.8854187	256.8854187	0.1427885	261.1724649	[-0.08833333333333333]	[0.4716666666666667]	[1]	[0]	[0]	[4.343860400000267]	['target']	643016	1	2024-10-04_11h28.18.327	Session5_VisualSearch	2024.1.5	None	2024-10-04 11h28.24.659862 +0530
132	0	132	0	261.2669056		261.1945188	5	261.2669056	261.2669056	0.0629429	262.6228946	[-0.26]	[0.29]	[1]	[0]	[0]	[1.3692761000020255]	['target']	643016	1	2024-10-04_11h28.18.327	Session5_VisualSearch	2024.1.5	None	2024-10-04 11h28.24.659862 +0530
133	0	133	0	262.7500208		262.6525605	10	262.7500208	262.7500208	0.0844832	264.8217234	[0.235]	[-0.36333333333333334]	[1]	[0]	[0]	[2.090948400000343]	['target']	643016	1	2024-10-04_11h28.18.327	Session5_VisualSearch	2024.1.5	None	2024-10-04 11h28.24.659862 +0530
134	0	134	0	265.0347633		264.8383745	10	265.0347633	265.0347633	0.1398465	266.7706986	[0.041666666666666664]	[-0.45666666666666667]	[1]	[0]	[0]	[1.79479199999696]	['target']	643016	1	2024-10-04_11h28.18.327	Session5_VisualSearch	2024.1.5	None	2024-10-04 11h28.24.659862 +0530
135	0	135	0	266.9842518		266.7866449	10	266.9842518	266.9842518	0.1419621	269.9511601	[-0.31166666666666665]	[0.3516666666666667]	[1]	[0]	[0]	[3.027352000000974]	['target']	643016	1	2024-10-04_11h28.18.327	Session5_VisualSearch	2024.1.5	None	2024-10-04 11h28.24.659862 +0530
136	0	136	0	270.0156187		269.9580254	5	270.0156187	270.0156187	0.0360119	271.9037923	[-0.135]	[-0.225]	[1]	[0]	[0]	[1.9101072999983444]	['target']	643016	1	2024-10-04_11h28.18.327	Session5_VisualSearch	2024.1.5	None	2024-10-04 11h28.24.659862 +0530
137	0	137	0	272.1174122		271.9199419	10	272.1174122	272.1174122	0.1410016	273.8213018	[0.08666666666666667]	[0.3283333333333333]	[1]	[0]	[0]	[1.764493800001219]	['target']	643016	1	2024-10-04_11h28.18.327	Session5_VisualSearch	2024.1.5	None	2024-10-04 11h28.24.659862 +0530
138	0	138	0	274.0507469		273.838679	10	274.0507469	274.0507469	0.141438	275.7699323	[0.34833333333333333]	[0.36833333333333335]	[1]	[0]	[0]	[1.7920052000008582]	['target']	643016	1	2024-10-04_11h28.18.327	Session5_VisualSearch	2024.1.5	None	2024-10-04 11h28.24.659862 +0530
139	0	139	0	275.9996601		275.7869924	10	275.9996601	275.9996601	0.1393039	278.4358875	[0.4716666666666667]	[0.4683333333333333]	[1]	[0]	[0]	[2.511555099998077]	['target']	643016	1	2024-10-04_11h28.18.327	Session5_VisualSearch	2024.1.5	None	2024-10-04 11h28.24.659862 +0530
140	0	140	0	278.5659825		278.4521701	5	278.5659825	278.5659825	0.0759893	280.0673383	[0.165]	[0.14833333333333334]	[1]	[0]	[0]	[1.5435528000016348]	['target']	643016	1	2024-10-04_11h28.18.327	Session5_VisualSearch	2024.1.5	None	2024-10-04 11h28.24.659862 +0530
141	0	141	0	280.1478338		280.0761548	5	280.1478338	280.1478338	0.0504453	281.5026406	[0.22833333333333333]	[-0.06]	[1]	[0]	[0]	[1.3772033999994164]	['target']	643016	1	2024-10-04_11h28.18.327	Session5_VisualSearch	2024.1.5	None	2024-10-04 11h28.24.659862 +0530
142	0	142	0	281.597701		281.5167734	10	281.597701	281.597701	0.0662702	283.2162205	[0.37333333333333335]	[-0.005]	[1]	[0]	[0]	[1.637247099999513]	['target']	643016	1	2024-10-04_11h28.18.327	Session5_VisualSearch	2024.1.5	None	2024-10-04 11h28.24.659862 +0530
143	0	143	0	283.2806063		283.2237653	5	283.2806063	283.2806063	0.0397004	285.0155866	[-0.29833333333333334]	[0.44166666666666665]	[1]	[0]	[0]	[1.7532638000011502]	['target']	643016	1	2024-10-04_11h28.18.327	Session5_VisualSearch	2024.1.5	None	2024-10-04 11h28.24.659862 +0530
144	0	144	0	285.0806009		285.0225173	5	285.0806009	285.0806009	0.0365724	287.101256	[0.44166666666666665]	[0.42833333333333334]	[1]	[0]	[0]	[2.0421955000019807]	['target']	643016	1	2024-10-04_11h28.18.327	Session5_VisualSearch	2024.1.5	None	2024-10-04 11h28.24.659862 +0530
145	0	145	0	287.2320319		287.1160346	5	287.2320319	287.2320319	0.0725162	290.950938	[-0.48]	[-0.11166666666666666]	[1]	[0]	[0]	[3.7663393000002543]	['target']	643016	1	2024-10-04_11h28.18.327	Session5_VisualSearch	2024.1.5	None	2024-10-04 11h28.24.659862 +0530
146	0	146	0	291.0460254		290.9668555	5	291.0460254	291.0460254	0.0635503	292.5675577	[-0.11166666666666666]	[0.02666666666666667]	[1]	[0]	[0]	[1.5405858999984048]	['target']	643016	1	2024-10-04_11h28.18.327	Session5_VisualSearch	2024.1.5	None	2024-10-04 11h28.24.659862 +0530
147	0	147	0	292.7141917		292.5839991	5	292.7141917	292.7141917	0.0898382	294.1673873	[-0.17166666666666666]	[-0.255]	[1]	[0]	[0]	[1.4964937999975518]	['target']	643016	1	2024-10-04_11h28.18.327	Session5_VisualSearch	2024.1.5	None	2024-10-04 11h28.24.659862 +0530
148	0	148	0	294.2970832		294.1841897	5	294.2970832	294.2970832	0.0734468	295.5865981	[0.135]	[0.15]	[1]	[0]	[0]	[1.3324193999978888]	['target']	643016	1	2024-10-04_11h28.18.327	Session5_VisualSearch	2024.1.5	None	2024-10-04 11h28.24.659862 +0530
149	0	149	0	295.7302816		295.6109191	5	295.7302816	295.7302816	0.0902069	297.1495011	[0.255]	[-0.32166666666666666]	[1]	[0]	[0]	[1.4546147000000929]	['target']	643016	1	2024-10-04_11h28.18.327	Session5_VisualSearch	2024.1.5	None	2024-10-04 11h28.24.659862 +0530
150	0	150	0	297.279872		297.1676724	5	297.279872	297.279872	0.0774002	298.7350596	[0.3516666666666667]	[0.25166666666666665]	[1]	[0]	[0]	[1.4940772999980254]	['target']	643016	1	2024-10-04_11h28.18.327	Session5_VisualSearch	2024.1.5	None	2024-10-04 11h28.24.659862 +0530
151	0	151	0	298.9630321		298.7571549	10	298.9630321	298.9630321	0.1384199	300.5636249	[-0.32166666666666666]	[-0.021666666666666667]	[1]	[0]	[0]	[1.6705464000006032]	['target']	643016	1	2024-10-04_11h28.18.327	Session5_VisualSearch	2024.1.5	None	2024-10-04 11h28.24.659862 +0530
152	0	152	0	300.6452905		300.5707525	5	300.6452905	300.6452905	0.0376432	302.2807342	[0.46166666666666667]	[-0.125]	[1]	[0]	[0]	[1.673076499999297]	['target']	643016	1	2024-10-04_11h28.18.327	Session5_VisualSearch	2024.1.5	None	2024-10-04 11h28.24.659862 +0530
153	0	153	0	302.3621479		302.2899425	5	302.3621479	302.3621479	0.0468323	303.9639095	[-0.31333333333333335]	[0.22166666666666668]	[1]	[0]	[0]	[1.6284080000004906]	['target']	643016	1	2024-10-04_11h28.18.327	Session5_VisualSearch	2024.1.5	None	2024-10-04 11h28.24.659862 +0530
154	0	154	0	304.0451034		303.9725642	5	304.0451034	304.0451034	0.0463579	305.4499478	[-0.355]	[0.42833333333333334]	[1]	[0]	[0]	[1.4317848999999114]	['target']	643016	1	2024-10-04_11h28.18.327	Session5_VisualSearch	2024.1.5	None	2024-10-04 11h28.24.659862 +0530
155	0	155	0	305.6444771		305.4667712	10	305.6444771	305.6444771	0.1394718	307.2997778	[-0.075]	[-0.16833333333333333]	[1]	[0]	[0]	[1.6953720999990765]	['target']	643016	1	2024-10-04_11h28.18.327	Session5_VisualSearch	2024.1.5	None	2024-10-04 11h28.24.659862 +0530
156	0	156	0	307.5289211		307.3256778	10	307.5289211	307.5289211	0.1428466	309.8656631	[0.09833333333333333]	[0.23833333333333334]	[1]	[0]	[0]	[2.400070499999856]	['target']	643016	1	2024-10-04_11h28.18.327	Session5_VisualSearch	2024.1.5	None	2024-10-04 11h28.24.659862 +0530
157	0	157	0	309.9955246		309.8811806	5	309.9955246	309.9955246	0.0764519	311.7989347	[0.115]	[-0.20333333333333334]	[1]	[0]	[0]	[1.8447597999984282]	['target']	643016	1	2024-10-04_11h28.18.327	Session5_VisualSearch	2024.1.5	None	2024-10-04 11h28.24.659862 +0530
158	0	158	0	311.9289103		311.8169618	5	311.9289103	311.9289103	0.0726338	313.6990518	[0.36833333333333335]	[-0.25166666666666665]	[1]	[0]	[0]	[1.8114067999995314]	['target']	643016	1	2024-10-04_11h28.18.327	Session5_VisualSearch	2024.1.5	None	2024-10-04 11h28.24.659862 +0530
159	0	159	0	313.9117898		313.7179771	10	313.9117898	313.9117898	0.1613103	315.365052	[-0.26666666666666666]	[-0.29333333333333333]	[1]	[0]	[0]	[1.4875102999976662]	['target']	643016	1	2024-10-04_11h28.18.327	Session5_VisualSearch	2024.1.5	None	2024-10-04 11h28.24.659862 +0530
160	0	160	0	315.5948179		315.3823064	10	315.5948179	315.5948179	0.1434267	317.2957658	[-0.005]	[-0.30833333333333335]	[1]	[0]	[0]	[1.7741055999977107]	['target']	643016	1	2024-10-04_11h28.18.327	Session5_VisualSearch	2024.1.5	None	2024-10-04 11h28.24.659862 +0530
161	0	161	0	317.3763687		317.3056922	5	317.3763687	317.3763687	0.0463212	318.9796224	[-0.49]	[-0.023333333333333334]	[1]	[0]	[0]	[1.6296903000002203]	['target']	643016	1	2024-10-04_11h28.18.327	Session5_VisualSearch	2024.1.5	None	2024-10-04 11h28.24.659862 +0530
162	0	162	0	319.0596841		318.9884202	5	319.0596841	319.0596841	0.0468506	321.0618583	[0.38166666666666665]	[-0.185]	[1]	[0]	[0]	[2.027770499997132]	['target']	643016	1	2024-10-04_11h28.18.327	Session5_VisualSearch	2024.1.5	None	2024-10-04 11h28.24.659862 +0530
163	0	163	0	321.1424983		321.070346	5	321.1424983	321.1424983	0.0456994	322.7474018	[-0.19666666666666666]	[-0.31666666666666665]	[1]	[0]	[0]	[1.6320384999999078]	['target']	643016	1	2024-10-04_11h28.18.327	Session5_VisualSearch	2024.1.5	None	2024-10-04 11h28.24.659862 +0530
164	0	164	0	322.9776553		322.7652812	10	322.9776553	322.9776553	0.1526944	324.8821808	[-0.3433333333333333]	[0.235]	[1]	[0]	[0]	[1.969049499999528]	['target']	643016	1	2024-10-04_11h28.18.327	Session5_VisualSearch	2024.1.5	None	2024-10-04 11h28.24.659862 +0530
165	0	165	0	324.9921463		324.9020668	5	324.9921463	324.9921463	0.0723486	326.4967116	[-0.075]	[-0.04666666666666667]	[1]	[0]	[0]	[1.5253384999996342]	['target']	643016	1	2024-10-04_11h28.18.327	Session5_VisualSearch	2024.1.5	None	2024-10-04 11h28.24.659862 +0530
166	0	166	0	326.6266659		326.5142462	5	326.6266659	326.6266659	0.0752789	328.3284978	[0.48833333333333334]	[-0.4583333333333333]	[1]	[0]	[0]	[1.7434049999974377]	['target']	643016	1	2024-10-04_11h28.18.327	Session5_VisualSearch	2024.1.5	None	2024-10-04 11h28.24.659862 +0530
167	0	167	0	328.4079126		328.3441209	5	328.4079126	328.4079126	0.0540938	330.093918	[-0.14666666666666667]	[0.17333333333333334]	[1]	[0]	[0]	[1.7011061000011978]	['target']	643016	1	2024-10-04_11h28.18.327	Session5_VisualSearch	2024.1.5	None	2024-10-04 11h28.24.659862 +0530
168	0	168	0	330.2416837		330.102877	10	330.2416837	330.2416837	0.0906765	332.3431807	[0.36]	[-0.415]	[1]	[0]	[0]	[2.150868900000205]	['target']	643016	1	2024-10-04_11h28.18.327	Session5_VisualSearch	2024.1.5	None	2024-10-04 11h28.24.659862 +0530
169	0	169	0	332.4078012		332.3502239	5	332.4078012	332.4078012	0.0375877	334.6127836	[0.058333333333333334]	[-0.025]	[1]	[0]	[0]	[2.2254152999994403]	['target']	643016	1	2024-10-04_11h28.18.327	Session5_VisualSearch	2024.1.5	None	2024-10-04 11h28.24.659862 +0530
170	0	170	0	334.742177		334.6307549	5	334.742177	334.742177	0.0710231	336.4783869	[0.16]	[-0.33]	[1]	[0]	[0]	[1.7791108999990684]	['target']	643016	1	2024-10-04_11h28.18.327	Session5_VisualSearch	2024.1.5	None	2024-10-04 11h28.24.659862 +0530
171	0	171	0	336.6417256		336.4959445	5	336.6417256	336.6417256	0.0910416	339.3133713	[-0.18333333333333332]	[0.43666666666666665]	[1]	[0]	[0]	[2.7314024999977846]	['target']	643016	1	2024-10-04_11h28.18.327	Session5_VisualSearch	2024.1.5	None	2024-10-04 11h28.24.659862 +0530
172	0	172	0	339.4412529		339.3348248	5	339.4412529	339.4412529	0.0731433	341.9775121	[0.21666666666666667]	[-0.245]	[1]	[0]	[0]	[2.5748811999983445]	['target']	643016	1	2024-10-04_11h28.18.327	Session5_VisualSearch	2024.1.5	None	2024-10-04 11h28.24.659862 +0530
173	0	173	0	342.0729386		341.9899826	5	342.0729386	342.0729386	0.0576779	343.6423291	[0.38166666666666665]	[0.045]	[1]	[0]	[0]	[1.5970526999990398]	['target']	643016	1	2024-10-04_11h28.18.327	Session5_VisualSearch	2024.1.5	None	2024-10-04 11h28.24.659862 +0530
174	0	174	0	343.7396546		343.6491448	10	343.7396546	343.7396546	0.0630813	348.7592477	[0.03]	[-0.09833333333333333]	[1]	[0]	[0]	[5.047292200000811]	['target']	643016	1	2024-10-04_11h28.18.327	Session5_VisualSearch	2024.1.5	None	2024-10-04 11h28.24.659862 +0530
175	0	175	0	348.9397149		348.7792406	10	348.9397149	348.9397149	0.1196057	351.4106036	[-0.41]	[0.11333333333333333]	[1]	[0]	[0]	[2.513060299999779]	['target']	643016	1	2024-10-04_11h28.18.327	Session5_VisualSearch	2024.1.5	None	2024-10-04 11h28.24.659862 +0530
176	0	176	0	351.5886737		351.4267117	10	351.5886737	351.5886737	0.1255074	352.7273775	[-0.325]	[0.4116666666666667]	[1]	[0]	[0]	[1.1779095999991114]	['target']	643016	1	2024-10-04_11h28.18.327	Session5_VisualSearch	2024.1.5	None	2024-10-04 11h28.24.659862 +0530
177	0	177	0	352.8564555		352.7431802	5	352.8564555	352.8564555	0.0730261	354.8264223	[0.39166666666666666]	[-0.21833333333333332]	[1]	[0]	[0]	[2.01256469999862]	['target']	643016	1	2024-10-04_11h28.18.327	Session5_VisualSearch	2024.1.5	None	2024-10-04 11h28.24.659862 +0530
178	0	178	0	354.9879881		354.8425511	10	354.9879881	354.9879881	0.1161391	356.5065392	[0.4483333333333333]	[0.315]	[1]	[0]	[0]	[1.5522421000023314]	['target']	643016	1	2024-10-04_11h28.18.327	Session5_VisualSearch	2024.1.5	None	2024-10-04 11h28.24.659862 +0530
179	0	179	0	356.5878439		356.5210986	5	356.5878439	356.5878439	0.0400036	358.1769205	[-0.25]	[0.23333333333333334]	[1]	[0]	[0]	[1.6166168999989168]	['target']	643016	1	2024-10-04_11h28.18.327	Session5_VisualSearch	2024.1.5	None	2024-10-04 11h28.24.659862 +0530
180	0	180	0	358.3063076		358.1932595	5	358.3063076	358.3063076	0.0717675	359.8738674	[-0.47833333333333333]	[0.25666666666666665]	[1]	[0]	[0]	[1.6119182000002183]	['target']	643016	1	2024-10-04_11h28.18.327	Session5_VisualSearch	2024.1.5	None	2024-10-04 11h28.24.659862 +0530
181	0	181	0	359.9874468		359.8827861	10	359.9874468	359.9874468	0.0810704	363.12254	[0.041666666666666664]	[-0.03166666666666667]	[1]	[0]	[0]	[3.1599360999971395]	[]	643016	1	2024-10-04_11h28.18.327	Session5_VisualSearch	2024.1.5	None	2024-10-04 11h28.24.659862 +0530
182	0	182	0	363.1870155		363.1291069	5	363.1870155	363.1870155	0.0358337	365.293139	[0.1]	[-0.445]	[1]	[0]	[0]	[2.128415400002268]	['target']	643016	1	2024-10-04_11h28.18.327	Session5_VisualSearch	2024.1.5	None	2024-10-04 11h28.24.659862 +0530
183	0	183	0	365.4707504		365.3106623	10	365.4707504	365.4707504	0.1141674	368.7878996	[0.4816666666666667]	[-0.4533333333333333]	[1]	[0]	[0]	[3.3655357000025106]	['target']	643016	1	2024-10-04_11h28.18.327	Session5_VisualSearch	2024.1.5	None	2024-10-04 11h28.24.659862 +0530
184	0	184	0	368.8525726		368.7963692	5	368.8525726	368.8525726	0.0340515	370.8252844	[0.395]	[0.48333333333333334]	[1]	[0]	[0]	[1.995763099999749]	['target']	643016	1	2024-10-04_11h28.18.327	Session5_VisualSearch	2024.1.5	None	2024-10-04 11h28.24.659862 +0530
185	0	185	0	370.953359		370.8405942	5	370.953359	370.953359	0.0718249	372.9741362	[-0.25]	[-0.3416666666666667]	[1]	[0]	[0]	[2.064581400001771]	['target']	643016	1	2024-10-04_11h28.18.327	Session5_VisualSearch	2024.1.5	None	2024-10-04 11h28.24.659862 +0530
186	0	186	0	373.204241		372.9925989	10	373.204241	373.204241	0.1523144	378.1545577	[-0.2816666666666667]	[0.4716666666666667]	[1]	[0]	[0]	[5.013926599996921]	[]	643016	1	2024-10-04_11h28.18.327	Session5_VisualSearch	2024.1.5	None	2024-10-04 11h28.24.659862 +0530
187	0	187	0	378.2683749		378.1635005	10	378.2683749	378.2683749	0.0798076	379.8732556	[-0.13166666666666665]	[0.15833333333333333]	[1]	[0]	[0]	[1.630773600001703]	['target']	643016	1	2024-10-04_11h28.18.327	Session5_VisualSearch	2024.1.5	None	2024-10-04 11h28.24.659862 +0530
188	0	188	0	380.0856275		379.8893775	10	380.0856275	380.0856275	0.1421967	382.3866714	[0.43666666666666665]	[-0.4083333333333333]	[1]	[0]	[0]	[2.3593536999978824]	['target']	643016	1	2024-10-04_11h28.18.327	Session5_VisualSearch	2024.1.5	None	2024-10-04 11h28.24.659862 +0530
189	0	189	0	382.4510906		382.3938016	5	382.4510906	382.4510906	0.0367093	383.9375982	[0.47333333333333333]	[0.018333333333333333]	[1]	[0]	[0]	[1.5074595000005502]	['target']	643016	1	2024-10-04_11h28.18.327	Session5_VisualSearch	2024.1.5	None	2024-10-04 11h28.24.659862 +0530
190	0	190	0	384.0856989		383.9460807	10	384.0856989	384.0856989	0.0910211	385.455988	[-0.085]	[0.056666666666666664]	[1]	[0]	[0]	[1.4199248000004445]	['target']	643016	1	2024-10-04_11h28.18.327	Session5_VisualSearch	2024.1.5	None	2024-10-04 11h28.24.659862 +0530
191	0	191	0	385.5863564		385.4720133	5	385.5863564	385.5863564	0.0765959	386.7224938	[-0.115]	[0.055]	[1]	[0]	[0]	[1.1781063999987964]	['target']	643016	1	2024-10-04_11h28.18.327	Session5_VisualSearch	2024.1.5	None	2024-10-04 11h28.24.659862 +0530
192	0	192	0	386.9519629		386.7382924	10	386.9519629	386.9519629	0.1429857	389.1363553	[-0.11833333333333333]	[0.095]	[1]	[0]	[0]	[2.259297799999331]	['target']	643016	1	2024-10-04_11h28.18.327	Session5_VisualSearch	2024.1.5	None	2024-10-04 11h28.24.659862 +0530
193	0	193	0	389.2000363		389.1435669	5	389.2000363	389.2000363	0.0381465	391.7687143	[-0.21166666666666667]	[0.18333333333333332]	[1]	[0]	[0]	[2.5878556999996363]	['target']	643016	1	2024-10-04_11h28.18.327	Session5_VisualSearch	2024.1.5	None	2024-10-04 11h28.24.659862 +0530
194	0	194	0	391.8334111		391.775844	5	391.8334111	391.8334111	0.037874	393.2019349	[0.145]	[0.15166666666666667]	[1]	[0]	[0]	[1.389143000000331]	['target']	643016	1	2024-10-04_11h28.18.327	Session5_VisualSearch	2024.1.5	None	2024-10-04 11h28.24.659862 +0530
195	0	195	0	393.2830529		393.2100837	5	393.2830529	393.2830529	0.0428446	394.5035615	[0.3516666666666667]	[0.2683333333333333]	[1]	[0]	[0]	[1.251304600002186]	['target']	643016	1	2024-10-04_11h28.18.327	Session5_VisualSearch	2024.1.5	None	2024-10-04 11h28.24.659862 +0530
196	0	196	0	394.5998453		394.5207164	5	394.5998453	394.5998453	0.0612159	396.4210628	[0.08833333333333333]	[0.09666666666666666]	[1]	[0]	[0]	[1.8428770000027725]	['target']	643016	1	2024-10-04_11h28.18.327	Session5_VisualSearch	2024.1.5	None	2024-10-04 11h28.24.659862 +0530
197	0	197	0	396.6516954		396.437713	10	396.6516954	396.6516954	0.1477199	397.7200909	[0.25333333333333335]	[0.023333333333333334]	[1]	[0]	[0]	[1.138433400003123]	['target']	643016	1	2024-10-04_11h28.18.327	Session5_VisualSearch	2024.1.5	None	2024-10-04 11h28.24.659862 +0530
198	0	198	0	397.8505629		397.7370316	5	397.8505629	397.8505629	0.0725669	399.6059973	[0.405]	[0.4666666666666667]	[1]	[0]	[0]	[1.8003296999995655]	['target']	643016	1	2024-10-04_11h28.18.327	Session5_VisualSearch	2024.1.5	None	2024-10-04 11h28.24.659862 +0530
199	0	199	0	399.8337552		399.6237788	10	399.8337552	399.8337552	0.1388375	401.3199513	[0.08166666666666667]	[-0.12166666666666667]	[1]	[0]	[0]	[1.5592078000008769]	['target']	643016	1	2024-10-04_11h28.18.327	Session5_VisualSearch	2024.1.5	None	2024-10-04 11h28.24.659862 +0530
