trials.thisRepN,trials.thisTrialN,trials.thisN,trials.thisIndex,thisRow.t,notes,trial.started,num_distr,Fixation.started,target.started,mouse.started,trial.stopped,mouse.x,mouse.y,mouse.leftButton,mouse.midButton,mouse.rightButton,mouse.time,mouse.clicked_name,participant,session,date,expName,psychopyVersion,frameRate,expStart,
0,0,0,0,0.18611130000135745,,0.049864000000525266,5,0.18611130000135745,0.18611130000135745,0.1289230000002135,1.8152583000010054,[0.30833333333333335],[0.30833333333333335],[1],[0],[0],[1.6846893000001728],['target'],335825,001,2024-10-04_11h52.26.393,Session5_VisualSearch,2024.1.5,None,2024-10-04 11h52.32.100983 +0530,
1,0,1,0,1.9428709999992861,,1.8340184999979101,10,1.9428709999992861,1.9428709999992861,0.08274929999970482,4.221007899999677,[-0.4866666666666667],[0.09166666666666666],[1],[0],[0],[2.3058330999992904],['target'],335825,001,2024-10-04_11h52.26.393,Session5_VisualSearch,2024.1.5,None,2024-10-04 11h52.32.100983 +0530,
2,0,2,0,4.325889600000664,,4.24165290000019,5,4.325889600000664,4.325889600000664,0.06991629999902216,5.831400600000052,[0.26166666666666666],[0.0016666666666666668],[1],[0],[0],[1.52321049999955],['target'],335825,001,2024-10-04_11h52.26.393,Session5_VisualSearch,2024.1.5,None,2024-10-04 11h52.32.100983 +0530,
3,0,3,0,5.925483600000007,,5.847481599997991,5,5.925483600000007,5.925483600000007,0.06377700000302866,7.515072599999257,[0.31166666666666665],[0.33],[1],[0],[0],[1.6082908999997017],['target'],335825,001,2024-10-04_11h52.26.393,Session5_VisualSearch,2024.1.5,None,2024-10-04 11h52.32.100983 +0530,
4,0,4,0,7.725730599999224,,7.5305576999999175,10,7.725730599999224,7.725730599999224,0.1458055000002787,12.062983699997858,[-0.24666666666666667],[0.26166666666666666],[1],[0],[0],[4.38858959999925],['target'],335825,001,2024-10-04_11h52.26.393,Session5_VisualSearch,2024.1.5,None,2024-10-04 11h52.32.100983 +0530,
5,0,5,0,12.176172600000427,,12.076105299998744,5,12.176172600000427,12.176172600000427,0.06738870000117458,13.596613599998818,[-0.0016666666666666668],[0.29833333333333334],[1],[0],[0],[1.4559150999994017],['target'],335825,001,2024-10-04_11h52.26.393,Session5_VisualSearch,2024.1.5,None,2024-10-04 11h52.32.100983 +0530,
6,0,6,0,13.708430599999701,,13.612580199998774,5,13.708430599999701,13.708430599999701,0.06995649999953457,15.266593899999862,[-0.39166666666666666],[0.025],[1],[0],[0],[1.588117900002544],['target'],335825,001,2024-10-04_11h52.26.393,Session5_VisualSearch,2024.1.5,None,2024-10-04 11h52.32.100983 +0530,
7,0,7,0,15.442861899999116,,15.282174399999349,10,15.442861899999116,15.442861899999116,0.11596009999993839,16.776494900001126,[-0.205],[0.14],[1],[0],[0],[1.3811270000005607],['target'],335825,001,2024-10-04_11h52.26.393,Session5_VisualSearch,2024.1.5,None,2024-10-04 11h52.32.100983 +0530,
8,0,8,0,16.875351200000296,,16.785090500001388,5,16.875351200000296,16.875351200000296,0.05718039999919711,18.880012099998567,[0.43],[-0.04833333333333333],[1],[0],[0],[2.038184699998965],['target'],335825,001,2024-10-04_11h52.26.393,Session5_VisualSearch,2024.1.5,None,2024-10-04 11h52.32.100983 +0530,
9,0,9,0,19.0743939999993,,18.8957776999996,10,19.0743939999993,19.0743939999993,0.14270940000278642,21.02590010000131,[-0.44166666666666665],[0.165],[1],[0],[0],[1.9911304000015662],['target'],335825,001,2024-10-04_11h52.26.393,Session5_VisualSearch,2024.1.5,None,2024-10-04 11h52.32.100983 +0530,
10,0,10,0,21.090712400000484,,21.032864900000277,5,21.090712400000484,21.090712400000484,0.037019499999587424,22.843175099998916,[-0.2],[0.465],[1],[0],[0],[1.7738793999997142],['target'],335825,001,2024-10-04_11h52.26.393,Session5_VisualSearch,2024.1.5,None,2024-10-04 11h52.32.100983 +0530,
11,0,11,0,22.940175799998542,,22.85157160000017,10,22.940175799998542,22.940175799998542,0.07085269999879529,23.962257399998634,[-0.21833333333333332],[0.4],[1],[0],[0],[1.0404248999984702],['target'],335825,001,2024-10-04_11h52.26.393,Session5_VisualSearch,2024.1.5,None,2024-10-04 11h52.32.100983 +0530,
12,0,12,0,24.089935699998023,,23.979478400000517,10,24.089935699998023,24.089935699998023,0.0963478000012401,26.264136699999654,[0.285],[-0.135],[1],[0],[0],[2.1902737999989768],['target'],335825,001,2024-10-04_11h52.26.393,Session5_VisualSearch,2024.1.5,None,2024-10-04 11h52.32.100983 +0530,
13,0,13,0,26.40610309999829,,26.285439100000076,10,26.40610309999829,26.40610309999829,0.09787610000057612,28.664919399998325,[-0.21333333333333335],[-0.3383333333333333],[1],[0],[0],[2.284601899998961],['target'],335825,001,2024-10-04_11h52.26.393,Session5_VisualSearch,2024.1.5,None,2024-10-04 11h52.32.100983 +0530,
14,0,14,0,28.807564200000343,,28.680555499999173,5,28.807564200000343,28.807564200000343,0.07851630000004661,30.496726900000795,[-0.15833333333333333],[0.09166666666666666],[1],[0],[0],[1.73930079999991],['target'],335825,001,2024-10-04_11h52.26.393,Session5_VisualSearch,2024.1.5,None,2024-10-04 11h52.32.100983 +0530,
15,0,15,0,30.62392809999801,,30.512237399998412,5,30.62392809999801,30.62392809999801,0.07224570000107633,32.260899699998845,[0.205],[-0.3233333333333333],[1],[0],[0],[1.6782989999992424],['target'],335825,001,2024-10-04_11h52.26.393,Session5_VisualSearch,2024.1.5,None,2024-10-04 11h52.32.100983 +0530,
16,0,16,0,32.40790180000113,,32.2783414000005,5,32.40790180000113,32.40790180000113,0.08594649999940884,33.64377329999843,[-0.29],[0.04833333333333333],[1],[0],[0],[1.2829942999997002],['target'],335825,001,2024-10-04_11h52.26.393,Session5_VisualSearch,2024.1.5,None,2024-10-04 11h52.32.100983 +0530,
17,0,17,0,33.7741563999989,,33.66058079999857,5,33.7741563999989,33.7741563999989,0.07544789999883506,35.31046509999942,[-0.41833333333333333],[-0.08333333333333333],[1],[0],[0],[1.5783403999994334],['target'],335825,001,2024-10-04_11h52.26.393,Session5_VisualSearch,2024.1.5,None,2024-10-04 11h52.32.100983 +0530,
18,0,18,0,35.44014249999964,,35.327077400001144,5,35.44014249999964,35.44014249999964,0.07060819999969681,36.94194900000002,[-0.08833333333333333],[0.4],[1],[0],[0],[1.5463290000006964],['target'],335825,001,2024-10-04_11h52.26.393,Session5_VisualSearch,2024.1.5,None,2024-10-04 11h52.32.100983 +0530,
19,0,19,0,37.088434999997844,,36.949706100000185,10,37.088434999997844,37.088434999997844,0.09768470000199159,38.590986399998656,[0.12833333333333333],[0.035],[1],[0],[0],[1.5447523000002548],['target'],335825,001,2024-10-04_11h52.26.393,Session5_VisualSearch,2024.1.5,None,2024-10-04 11h52.32.100983 +0530,
20,0,20,0,38.672166799999104,,38.59878789999857,5,38.672166799999104,38.672166799999104,0.044096000001445645,39.89293019999968,[0.235],[-0.16],[1],[0],[0],[1.2506680000005872],['target'],335825,001,2024-10-04_11h52.26.393,Session5_VisualSearch,2024.1.5,None,2024-10-04 11h52.32.100983 +0530,
21,0,21,0,40.02361259999816,,39.909900700000435,5,40.02361259999816,40.02361259999816,0.0738707999989856,41.54190150000068,[-0.29833333333333334],[-0.041666666666666664],[1],[0],[0],[1.5607416999991983],['target'],335825,001,2024-10-04_11h52.26.393,Session5_VisualSearch,2024.1.5,None,2024-10-04 11h52.32.100983 +0530,
22,0,22,0,41.67240110000057,,41.55763200000001,5,41.67240110000057,41.67240110000057,0.0719448999989254,42.94205019999936,[-0.31333333333333335],[-0.2916666666666667],[1],[0],[0],[1.3163432999972429],['target'],335825,001,2024-10-04_11h52.26.393,Session5_VisualSearch,2024.1.5,None,2024-10-04 11h52.32.100983 +0530,
23,0,23,0,43.154585000000225,,42.95792000000074,10,43.154585000000225,43.154585000000225,0.14706280000245897,45.0393613999986,[0.3016666666666667],[-0.11666666666666667],[1],[0],[0],[1.938947399998142],['target'],335825,001,2024-10-04_11h52.26.393,Session5_VisualSearch,2024.1.5,None,2024-10-04 11h52.32.100983 +0530,
24,0,24,0,45.104071400000976,,45.046564399999625,5,45.104071400000976,45.104071400000976,0.03896750000058091,46.55740539999897,[0.335],[-0.2966666666666667],[1],[0],[0],[1.472671999999875],['target'],335825,001,2024-10-04_11h52.26.393,Session5_VisualSearch,2024.1.5,None,2024-10-04 11h52.32.100983 +0530,
25,0,25,0,46.63729020000028,,46.570592600000964,5,46.63729020000028,46.63729020000028,0.0471030000007886,48.109070800001064,[-0.18833333333333332],[0.13666666666666666],[1],[0],[0],[1.4930708000028972],['target'],335825,001,2024-10-04_11h52.26.393,Session5_VisualSearch,2024.1.5,None,2024-10-04 11h52.32.100983 +0530,
26,0,26,0,48.287136899998586,,48.130518400001165,10,48.287136899998586,48.287136899998586,0.13782229999924311,50.07503329999963,[0.30666666666666664],[-0.34833333333333333],[1],[0],[0],[1.8092343999996956],['target'],335825,001,2024-10-04_11h52.26.393,Session5_VisualSearch,2024.1.5,None,2024-10-04 11h52.32.100983 +0530,
27,0,27,0,50.20507640000142,,50.093804199997976,5,50.20507640000142,50.20507640000142,0.07452310000007856,52.50769130000117,[-0.02],[-0.41833333333333333],[1],[0],[0],[2.3419152999995276],['target'],335825,001,2024-10-04_11h52.26.393,Session5_VisualSearch,2024.1.5,None,2024-10-04 11h52.32.100983 +0530,
28,0,28,0,52.63823620000039,,52.5237793999986,5,52.63823620000039,52.63823620000039,0.0752766999976302,54.14235159999953,[0.11166666666666666],[0.07],[1],[0],[0],[1.5470262999988336],['target'],335825,001,2024-10-04_11h52.26.393,Session5_VisualSearch,2024.1.5,None,2024-10-04 11h52.32.100983 +0530,
29,0,29,0,54.374418600000354,,54.16057480000018,10,54.374418600000354,54.374418600000354,0.14435799999773735,56.42510969999785,[0.125],[0.37166666666666665],[1],[0],[0],[2.1223200999993423],['target'],335825,001,2024-10-04_11h52.26.393,Session5_VisualSearch,2024.1.5,None,2024-10-04 11h52.32.100983 +0530,
30,0,30,0,56.51905339999939,,56.444656899999245,5,56.51905339999939,56.51905339999939,0.05250800000067102,58.27203269999882,[0.395],[-0.18833333333333332],[1],[0],[0],[1.7774059000003035],['target'],335825,001,2024-10-04_11h52.26.393,Session5_VisualSearch,2024.1.5,None,2024-10-04 11h52.32.100983 +0530,
31,0,31,0,58.403034499999194,,58.28075230000104,10,58.403034499999194,58.403034499999194,0.08167929999763146,59.78751619999821,[0.4816666666666667],[-0.07333333333333333],[1],[0],[0],[1.4263568999995186],['target'],335825,001,2024-10-04_11h52.26.393,Session5_VisualSearch,2024.1.5,None,2024-10-04 11h52.32.100983 +0530,
32,0,32,0,59.88603919999878,,59.79460850000032,10,59.88603919999878,59.88603919999878,0.07137019999936456,62.03756069999872,[0.115],[0.2916666666666667],[1],[0],[0],[2.1722482000004675],['target'],335825,001,2024-10-04_11h52.26.393,Session5_VisualSearch,2024.1.5,None,2024-10-04 11h52.32.100983 +0530,
33,0,33,0,62.13560620000135,,62.044756100000086,10,62.13560620000135,62.13560620000135,0.06612139999924693,64.29002079999918,[0.09166666666666666],[-0.415],[1],[0],[0],[2.1792582999987644],['target'],335825,001,2024-10-04_11h52.26.393,Session5_VisualSearch,2024.1.5,None,2024-10-04 11h52.32.100983 +0530,
34,0,34,0,64.52074929999799,,64.30829380000068,10,64.52074929999799,64.52074929999799,0.1490072999986296,66.10778809999829,[0.085],[0.17833333333333334],[1],[0],[0],[1.6525954999997339],['target'],335825,001,2024-10-04_11h52.26.393,Session5_VisualSearch,2024.1.5,None,2024-10-04 11h52.32.100983 +0530,
35,0,35,0,66.35288159999982,,66.12569330000042,10,66.35288159999982,66.35288159999982,0.15700559999822872,70.5899978999987,[-0.235],[0.12666666666666668],[1],[0],[0],[4.310039100000722],['target'],335825,001,2024-10-04_11h52.26.393,Session5_VisualSearch,2024.1.5,None,2024-10-04 11h52.32.100983 +0530,
36,0,36,0,70.70081189999837,,70.60736969999925,5,70.70081189999837,70.70081189999837,0.06903349999993225,72.48603069999808,[0.11333333333333333],[0.31166666666666665],[1],[0],[0],[1.8124950999990688],['target'],335825,001,2024-10-04_11h52.26.393,Session5_VisualSearch,2024.1.5,None,2024-10-04 11h52.32.100983 +0530,
37,0,37,0,72.58431539999947,,72.49366749999899,10,72.58431539999947,72.58431539999947,0.06945400000040536,74.01930619999985,[-0.125],[0.07166666666666667],[1],[0],[0],[1.457254400000238],['target'],335825,001,2024-10-04_11h52.26.393,Session5_VisualSearch,2024.1.5,None,2024-10-04 11h52.32.100983 +0530,
38,0,38,0,74.08405499999935,,74.02648770000087,5,74.08405499999935,74.08405499999935,0.03961419999905047,76.05560089999926,[0.145],[0.24166666666666667],[1],[0],[0],[1.989877299998625],['target'],335825,001,2024-10-04_11h52.26.393,Session5_VisualSearch,2024.1.5,None,2024-10-04 11h52.32.100983 +0530,
39,0,39,0,76.18598059999931,,76.07145339999988,5,76.18598059999931,76.18598059999931,0.0743627000010747,77.82073060000039,[-0.11833333333333333],[-0.37833333333333335],[1],[0],[0],[1.678495699998166],['target'],335825,001,2024-10-04_11h52.26.393,Session5_VisualSearch,2024.1.5,None,2024-10-04 11h52.32.100983 +0530,
40,0,40,0,78.05149339999844,,77.83641820000048,10,78.05149339999844,78.05149339999844,0.14561419999881764,80.25354399999924,[-0.22],[-0.4116666666666667],[1],[0],[0],[2.2755417000007583],['target'],335825,001,2024-10-04_11h52.26.393,Session5_VisualSearch,2024.1.5,None,2024-10-04 11h52.32.100983 +0530,
41,0,41,0,80.41667260000031,,80.27006970000002,10,80.41667260000031,80.41667260000031,0.11529650000011316,82.31933299999946,[-0.20166666666666666],[-0.41333333333333333],[1],[0],[0],[1.938126299999567],['target'],335825,001,2024-10-04_11h52.26.393,Session5_VisualSearch,2024.1.5,None,2024-10-04 11h52.32.100983 +0530,
42,0,42,0,82.38245530000131,,82.32641890000014,5,82.38245530000131,82.38245530000131,0.03734869999971124,84.00290250000035,[-0.26166666666666666],[0.20666666666666667],[1],[0],[0],[1.6398267000004125],['target'],335825,001,2024-10-04_11h52.26.393,Session5_VisualSearch,2024.1.5,None,2024-10-04 11h52.32.100983 +0530,
43,0,43,0,84.0828522999982,,84.01284509999823,5,84.0828522999982,84.0828522999982,0.04756020000058925,86.02099539999836,[0.23166666666666666],[0.365],[1],[0],[0],[1.9613347999984398],['target'],335825,001,2024-10-04_11h52.26.393,Session5_VisualSearch,2024.1.5,None,2024-10-04 11h52.32.100983 +0530,
44,0,44,0,86.15007020000121,,86.04682999999932,5,86.15007020000121,86.15007020000121,0.07201919999715756,87.73778519999905,[0.09833333333333333],[-0.39166666666666666],[1],[0],[0],[1.6224044000009599],['target'],335825,001,2024-10-04_11h52.26.393,Session5_VisualSearch,2024.1.5,None,2024-10-04 11h52.32.100983 +0530,
45,0,45,0,87.86674449999919,,87.75446499999816,5,87.86674449999919,87.86674449999919,0.07493999999860534,88.91959389999829,[0.155],[-0.21666666666666667],[1],[0],[0],[1.0920256999997946],['target'],335825,001,2024-10-04_11h52.26.393,Session5_VisualSearch,2024.1.5,None,2024-10-04 11h52.32.100983 +0530,
46,0,46,0,89.14998990000095,,88.93901940000069,10,89.14998990000095,89.14998990000095,0.1470989000008558,91.03456830000141,[0.26166666666666666],[0.27166666666666667],[1],[0],[0],[1.9531819000003452],['target'],335825,001,2024-10-04_11h52.26.393,Session5_VisualSearch,2024.1.5,None,2024-10-04 11h52.32.100983 +0530,
47,0,47,0,91.09816140000112,,91.04200819999824,5,91.09816140000112,91.09816140000112,0.0376514000017778,92.0181253999981,[0.32],[0.15166666666666667],[1],[0],[0],[0.9393839000003936],['target'],335825,001,2024-10-04_11h52.26.393,Session5_VisualSearch,2024.1.5,None,2024-10-04 11h52.32.100983 +0530,
48,0,48,0,92.13157339999816,,92.02550849999898,10,92.13157339999816,92.13157339999816,0.07300590000158991,93.51669920000131,[0.285],[-0.37833333333333335],[1],[0],[0],[1.4190673999983119],['target'],335825,001,2024-10-04_11h52.26.393,Session5_VisualSearch,2024.1.5,None,2024-10-04 11h52.32.100983 +0530,
49,0,49,0,93.5817109999989,,93.52406060000067,5,93.5817109999989,93.5817109999989,0.03750860000218381,94.80030740000075,[0.07166666666666667],[0.041666666666666664],[1],[0],[0],[1.2396248000004562],['target'],335825,001,2024-10-04_11h52.26.393,Session5_VisualSearch,2024.1.5,None,2024-10-04 11h52.32.100983 +0530,
50,0,50,0,94.94927530000132,,94.80901280000035,10,94.94927530000132,94.94927530000132,0.09045930000138469,96.1690282999989,[0.24666666666666667],[-0.1],[1],[0],[0],[1.2703384999986156],['target'],335825,001,2024-10-04_11h52.26.393,Session5_VisualSearch,2024.1.5,None,2024-10-04 11h52.32.100983 +0530,
51,0,51,0,96.26380989999961,,96.1873658000004,5,96.26380989999961,96.26380989999961,0.06741799999872455,97.17197060000035,[-0.14166666666666666],[0.20666666666666667],[1],[0],[0],[0.9222356999998738],[],335825,001,2024-10-04_11h52.26.393,Session5_VisualSearch,2024.1.5,None,2024-10-04 11h52.32.100983 +0530,
52,0,52,0,97.28126599999814,,97.1883291999984,5,97.28126599999814,97.28126599999814,0.06665689999863389,99.16834780000136,[-0.29],[-0.45],[1],[0],[0],[1.9154138000012608],['target'],335825,001,2024-10-04_11h52.26.393,Session5_VisualSearch,2024.1.5,None,2024-10-04 11h52.32.100983 +0530,
53,0,53,0,99.29876819999845,,99.18477150000035,5,99.29876819999845,99.29876819999845,0.07296059999862337,100.52014919999783,[-0.19333333333333333],[0.29333333333333333],[1],[0],[0],[1.2664927000005264],['target'],335825,001,2024-10-04_11h52.26.393,Session5_VisualSearch,2024.1.5,None,2024-10-04 11h52.32.100983 +0530,
54,0,54,0,100.76502650000111,,100.5396914999983,10,100.76502650000111,100.76502650000111,0.154899099998147,102.01864339999884,[0.19],[0.23833333333333334],[1],[0],[0],[1.3271923000029346],['target'],335825,001,2024-10-04_11h52.26.393,Session5_VisualSearch,2024.1.5,None,2024-10-04 11h52.32.100983 +0530,
55,0,55,0,102.23013770000034,,102.0367789999982,10,102.23013770000034,102.23013770000034,0.14364330000171321,103.63581759999943,[-0.30666666666666664],[0.41833333333333333],[1],[0],[0],[1.4573927000019467],['target'],335825,001,2024-10-04_11h52.26.393,Session5_VisualSearch,2024.1.5,None,2024-10-04 11h52.32.100983 +0530,
56,0,56,0,103.78224159999809,,103.65331589999914,5,103.78224159999809,103.78224159999809,0.08383649999814224,104.90151350000087,[-0.10166666666666667],[-0.025],[1],[0],[0],[1.1678079000012076],[],335825,001,2024-10-04_11h52.26.393,Session5_VisualSearch,2024.1.5,None,2024-10-04 11h52.32.100983 +0530,
57,0,57,0,105.12978269999803,,104.91850690000138,10,105.12978269999803,105.12978269999803,0.14722640000036336,107.25150740000026,[-0.34833333333333333],[-0.23833333333333334],[1],[0],[0],[2.1893447000002197],['target'],335825,001,2024-10-04_11h52.26.393,Session5_VisualSearch,2024.1.5,None,2024-10-04 11h52.32.100983 +0530,
58,0,58,0,107.38072219999958,,107.26843010000084,5,107.38072219999958,107.38072219999958,0.07404479999968316,108.81957870000042,[0.49333333333333335],[-0.013333333333333334],[1],[0],[0],[1.4791263000006438],['target'],335825,001,2024-10-04_11h52.26.393,Session5_VisualSearch,2024.1.5,None,2024-10-04 11h52.32.100983 +0530,
59,0,59,0,109.04768079999849,,108.83564950000073,10,109.04768079999849,109.04768079999849,0.1425191000016639,110.41674520000015,[-0.215],[-0.03166666666666667],[1],[0],[0],[1.4410994999998366],['target'],335825,001,2024-10-04_11h52.26.393,Session5_VisualSearch,2024.1.5,None,2024-10-04 11h52.32.100983 +0530,
60,0,60,0,110.63041330000124,,110.43258090000018,10,110.63041330000124,110.63041330000124,0.1425003000003926,112.83267709999927,[-0.27166666666666667],[-0.2866666666666667],[1],[0],[0],[2.2608287000002747],['target'],335825,001,2024-10-04_11h52.26.393,Session5_VisualSearch,2024.1.5,None,2024-10-04 11h52.32.100983 +0530,
61,0,61,0,112.94523990000016,,112.84693870000046,5,112.94523990000016,112.94523990000016,0.0640663999984099,114.24852159999864,[0.13666666666666666],[0.37],[1],[0],[0],[1.341652900002373],['target'],335825,001,2024-10-04_11h52.26.393,Session5_VisualSearch,2024.1.5,None,2024-10-04 11h52.32.100983 +0530,
62,0,62,0,114.36197729999913,,114.25592659999893,10,114.36197729999913,114.36197729999913,0.07315100000050734,115.54729229999793,[0.24166666666666667],[0.07166666666666667],[1],[0],[0],[1.2192562999989605],['target'],335825,001,2024-10-04_11h52.26.393,Session5_VisualSearch,2024.1.5,None,2024-10-04 11h52.32.100983 +0530,
63,0,63,0,115.64485390000118,,115.55437750000056,10,115.64485390000118,115.64485390000118,0.0713610000020708,116.93333590000111,[-0.15166666666666667],[0.41833333333333333],[1],[0],[0],[1.3079457999992883],['target'],335825,001,2024-10-04_11h52.26.393,Session5_VisualSearch,2024.1.5,None,2024-10-04 11h52.32.100983 +0530,
64,0,64,0,117.06350039999961,,116.9495468999994,5,117.06350039999961,117.06350039999961,0.07542739999917103,118.89965379999921,[0.49166666666666664],[-0.4816666666666667],[1],[0],[0],[1.8781013999978313],['target'],335825,001,2024-10-04_11h52.26.393,Session5_VisualSearch,2024.1.5,None,2024-10-04 11h52.32.100983 +0530,
65,0,65,0,119.02939880000122,,118.9176582,5,119.02939880000122,119.02939880000122,0.07715989999996964,120.79906910000136,[0.20666666666666667],[0.3566666666666667],[1],[0],[0],[1.808025300000736],['target'],335825,001,2024-10-04_11h52.26.393,Session5_VisualSearch,2024.1.5,None,2024-10-04 11h52.32.100983 +0530,
66,0,66,0,120.92905439999959,,120.81516750000083,5,120.92905439999959,120.92905439999959,0.07333890000154497,122.0330916999992,[0.10666666666666667],[0.13166666666666665],[1],[0],[0],[1.1477794000020367],[],335825,001,2024-10-04_11h52.26.393,Session5_VisualSearch,2024.1.5,None,2024-10-04 11h52.32.100983 +0530,
67,0,67,0,122.2625334000004,,122.05047689999992,10,122.2625334000004,122.2625334000004,0.1454329999978654,125.39990449999823,[-0.37166666666666665],[0.47833333333333333],[1],[0],[0],[3.2085308999994595],['target'],335825,001,2024-10-04_11h52.26.393,Session5_VisualSearch,2024.1.5,None,2024-10-04 11h52.32.100983 +0530,
68,0,68,0,125.57704100000046,,125.41695759999857,10,125.57704100000046,125.57704100000046,0.1338644999996177,126.97957020000104,[-0.37],[0.09166666666666666],[1],[0],[0],[1.4324949000001652],['target'],335825,001,2024-10-04_11h52.26.393,Session5_VisualSearch,2024.1.5,None,2024-10-04 11h52.32.100983 +0530,
69,0,69,0,127.06014009999853,,126.98825539999962,5,127.06014009999853,127.06014009999853,0.04449419999946258,128.89579550000053,[0.25166666666666665],[-0.17166666666666666],[1],[0],[0],[1.8647272000016528],['target'],335825,001,2024-10-04_11h52.26.393,Session5_VisualSearch,2024.1.5,None,2024-10-04 11h52.32.100983 +0530,
70,0,70,0,129.02668919999996,,128.90339820000008,10,129.02668919999996,129.02668919999996,0.07981920000020182,130.7639393999998,[-0.315],[0.42833333333333334],[1],[0],[0],[1.7815784999984317],['target'],335825,001,2024-10-04_11h52.26.393,Session5_VisualSearch,2024.1.5,None,2024-10-04 11h52.32.100983 +0530,
71,0,71,0,130.91031219999786,,130.77437319999808,10,130.91031219999786,130.91031219999786,0.0942998999998963,132.36269979999997,[0.375],[0.008333333333333333],[1],[0],[0],[1.4951368000001821],['target'],335825,001,2024-10-04_11h52.26.393,Session5_VisualSearch,2024.1.5,None,2024-10-04 11h52.32.100983 +0530,
72,0,72,0,132.50968609999836,,132.3713089999983,10,132.50968609999836,132.50968609999836,0.09204759999920498,134.3455791999986,[-0.08833333333333333],[0.45],[1],[0],[0],[1.883462400001008],['target'],335825,001,2024-10-04_11h52.26.393,Session5_VisualSearch,2024.1.5,None,2024-10-04 11h52.32.100983 +0530,
73,0,73,0,134.4592503999993,,134.3527654999998,10,134.4592503999993,134.4592503999993,0.07265389999884064,135.78209290000086,[0.15833333333333333],[0.2966666666666667],[1],[0],[0],[1.3570292000003974],['target'],335825,001,2024-10-04_11h52.26.393,Session5_VisualSearch,2024.1.5,None,2024-10-04 11h52.32.100983 +0530,
74,0,74,0,136.17759039999873,,135.80940519999785,10,136.17759039999873,136.17759039999873,0.31022650000159047,138.1300682000001,[0.105],[0.045],[1],[0],[0],[2.017564099998708],[],335825,001,2024-10-04_11h52.26.393,Session5_VisualSearch,2024.1.5,None,2024-10-04 11h52.32.100983 +0530,
75,0,75,0,138.24310530000002,,138.1486999000008,5,138.24310530000002,138.24310530000002,0.06983469999977387,139.99572199999966,[0.47833333333333333],[-0.4266666666666667],[1],[0],[0],[1.782553500001086],['target'],335825,001,2024-10-04_11h52.26.393,Session5_VisualSearch,2024.1.5,None,2024-10-04 11h52.32.100983 +0530,
76,0,76,0,140.07631789999868,,140.00448609999876,5,140.07631789999868,140.07631789999868,0.046469799999613315,141.46222699999998,[0.15833333333333333],[0.2866666666666667],[1],[0],[0],[1.412068100002216],['target'],335825,001,2024-10-04_11h52.26.393,Session5_VisualSearch,2024.1.5,None,2024-10-04 11h52.32.100983 +0530,
77,0,77,0,141.55896209999992,,141.47380899999916,5,141.55896209999992,141.55896209999992,0.05870209999920917,143.0314823999979,[-0.21666666666666667],[-0.405],[1],[0],[0],[1.5009758999985934],['target'],335825,001,2024-10-04_11h52.26.393,Session5_VisualSearch,2024.1.5,None,2024-10-04 11h52.32.100983 +0530,
78,0,78,0,143.17554929999824,,143.05019900000116,5,143.17554929999824,143.17554929999824,0.08340410000164411,145.24745189999885,[0.39666666666666667],[-0.405],[1],[0],[0],[2.1156321999987995],['target'],335825,001,2024-10-04_11h52.26.393,Session5_VisualSearch,2024.1.5,None,2024-10-04 11h52.32.100983 +0530,
79,0,79,0,145.3756218999988,,145.26374999999825,5,145.3756218999988,145.3756218999988,0.07198190000053728,146.4971098999995,[-0.013333333333333334],[0.18166666666666667],[1],[0],[0],[1.1632506000023568],['target'],335825,001,2024-10-04_11h52.26.393,Session5_VisualSearch,2024.1.5,None,2024-10-04 11h52.32.100983 +0530,
80,0,80,0,146.70882309999797,,146.51266779999787,10,146.70882309999797,146.70882309999797,0.1414262999969651,148.16064249999908,[0.07833333333333334],[0.39166666666666666],[1],[0],[0],[1.5091130000000703],[],335825,001,2024-10-04_11h52.26.393,Session5_VisualSearch,2024.1.5,None,2024-10-04 11h52.32.100983 +0530,
81,0,81,0,148.2412000000004,,148.1672069999986,10,148.2412000000004,148.2412000000004,0.05310699999972712,149.50967189999938,[0.2866666666666667],[-0.04],[1],[0],[0],[1.2901117999972485],['target'],335825,001,2024-10-04_11h52.26.393,Session5_VisualSearch,2024.1.5,None,2024-10-04 11h52.32.100983 +0530,
82,0,82,0,149.57427639999878,,149.51714509999874,5,149.57427639999878,149.57427639999878,0.03731780000089202,150.5940378000014,[0.225],[-0.2683333333333333],[1],[0],[0],[1.0403320999976131],['target'],335825,001,2024-10-04_11h52.26.393,Session5_VisualSearch,2024.1.5,None,2024-10-04 11h52.32.100983 +0530,
83,0,83,0,150.74111059999996,,150.60344129999794,10,150.74111059999996,150.74111059999996,0.09368170000016107,151.96002829999998,[0.3616666666666667],[-0.06833333333333333],[1],[0],[0],[1.2645841000012297],[],335825,001,2024-10-04_11h52.26.393,Session5_VisualSearch,2024.1.5,None,2024-10-04 11h52.32.100983 +0530,
84,0,84,0,152.1238373999986,,151.96859699999914,10,152.1238373999986,152.1238373999986,0.13136699999813573,153.26147109999874,[-0.17],[-0.09666666666666666],[1],[0],[0],[1.162567700001091],[],335825,001,2024-10-04_11h52.26.393,Session5_VisualSearch,2024.1.5,None,2024-10-04 11h52.32.100983 +0530,
85,0,85,0,153.37385150000046,,153.27802299999894,5,153.37385150000046,153.37385150000046,0.06879830000252696,154.9955731000009,[0.43],[0.15166666666666667],[1],[0],[0],[1.6521563000023889],['target'],335825,001,2024-10-04_11h52.26.393,Session5_VisualSearch,2024.1.5,None,2024-10-04 11h52.32.100983 +0530,
86,0,86,0,155.12477239999862,,155.01235539999834,5,155.12477239999862,155.12477239999862,0.07388270000228658,156.5441036000011,[0.2916666666666667],[0.22833333333333333],[1],[0],[0],[1.4617208999989089],['target'],335825,001,2024-10-04_11h52.26.393,Session5_VisualSearch,2024.1.5,None,2024-10-04 11h52.32.100983 +0530,
87,0,87,0,156.7564668999985,,156.5619517999985,10,156.7564668999985,156.7564668999985,0.14114820000031614,159.8589877000013,[-0.355],[0.47833333333333333],[1],[0],[0],[3.161029700000654],['target'],335825,001,2024-10-04_11h52.26.393,Session5_VisualSearch,2024.1.5,None,2024-10-04 11h52.32.100983 +0530,
88,0,88,0,159.98934970000118,,159.86835749999955,10,159.98934970000118,159.98934970000118,0.09693789999801083,163.04574599999978,[-0.43166666666666664],[-0.435],[1],[0],[0],[3.0814420000024256],['target'],335825,001,2024-10-04_11h52.26.393,Session5_VisualSearch,2024.1.5,None,2024-10-04 11h52.32.100983 +0530,
89,0,89,0,163.1738484999987,,163.0614648999981,5,163.1738484999987,163.1738484999987,0.0707899000008183,164.64372730000105,[0.315],[-0.28833333333333333],[1],[0],[0],[1.5130690000005416],['target'],335825,001,2024-10-04_11h52.26.393,Session5_VisualSearch,2024.1.5,None,2024-10-04 11h52.32.100983 +0530,
90,0,90,0,164.7551276999984,,164.6589488999998,10,164.7551276999984,164.7551276999984,0.06951950000075158,166.60799499999848,[-0.4583333333333333],[0.058333333333333334],[1],[0],[0],[1.883152300000802],['target'],335825,001,2024-10-04_11h52.26.393,Session5_VisualSearch,2024.1.5,None,2024-10-04 11h52.32.100983 +0530,
91,0,91,0,166.70570539999972,,166.61862259999907,5,166.70570539999972,166.70570539999972,0.058523499999864725,168.12745039999936,[0.045],[0.085],[1],[0],[0],[1.4516514000024472],['target'],335825,001,2024-10-04_11h52.26.393,Session5_VisualSearch,2024.1.5,None,2024-10-04 11h52.32.100983 +0530,
92,0,92,0,168.34020349999992,,168.1438085000009,10,168.34020349999992,168.34020349999992,0.13938019999841345,170.19373030000133,[-0.265],[-0.195],[1],[0],[0],[1.9151498999999603],['target'],335825,001,2024-10-04_11h52.26.393,Session5_VisualSearch,2024.1.5,None,2024-10-04 11h52.32.100983 +0530,
93,0,93,0,170.32252529999823,,170.2116399000006,5,170.32252529999823,170.32252529999823,0.07248140000228886,171.9263061999991,[0.3883333333333333],[0.3616666666666667],[1],[0],[0],[1.6447866999988037],['target'],335825,001,2024-10-04_11h52.26.393,Session5_VisualSearch,2024.1.5,None,2024-10-04 11h52.32.100983 +0530,
94,0,94,0,171.9706311000009,,171.93196999999782,5,171.9706311000009,171.9706311000009,0.026709300000220537,173.17563489999884,[0.38166666666666665],[0.19833333333333333],[1],[0],[0],[1.2177279999996244],['target'],335825,001,2024-10-04_11h52.26.393,Session5_VisualSearch,2024.1.5,None,2024-10-04 11h52.32.100983 +0530,
95,0,95,0,173.38786270000128,,173.19227450000108,10,173.38786270000128,173.38786270000128,0.14401970000108122,174.75606949999928,[-0.205],[0.075],[1],[0],[0],[1.4239175000002433],['target'],335825,001,2024-10-04_11h52.26.393,Session5_VisualSearch,2024.1.5,None,2024-10-04 11h52.32.100983 +0530,
96,0,96,0,174.87067639999805,,174.76300300000003,10,174.87067639999805,174.87067639999805,0.0721771999997145,176.99069560000135,[-0.315],[0.43],[1],[0],[0],[2.156423199998244],['target'],335825,001,2024-10-04_11h52.26.393,Session5_VisualSearch,2024.1.5,None,2024-10-04 11h52.32.100983 +0530,
97,0,97,0,177.07066470000063,,176.99774799999796,10,177.07066470000063,177.07066470000063,0.05117140000220388,179.04257119999966,[-0.49166666666666664],[0.16166666666666665],[1],[0],[0],[1.993842500000028],['target'],335825,001,2024-10-04_11h52.26.393,Session5_VisualSearch,2024.1.5,None,2024-10-04 11h52.32.100983 +0530,
98,0,98,0,179.27189139999973,,179.05888520000008,10,179.27189139999973,179.27189139999973,0.13968929999828106,180.65830659999847,[-0.29833333333333334],[0.23166666666666666],[1],[0],[0],[1.4619430000020657],['target'],335825,001,2024-10-04_11h52.26.393,Session5_VisualSearch,2024.1.5,None,2024-10-04 11h52.32.100983 +0530,
99,0,99,0,180.80338649999976,,180.67586999999912,10,180.80338649999976,180.80338649999976,0.0952967000011995,183.72701059999963,[-0.4583333333333333],[0.47],[1],[0],[0],[2.9604048000001058],['target'],335825,001,2024-10-04_11h52.26.393,Session5_VisualSearch,2024.1.5,None,2024-10-04 11h52.32.100983 +0530,
100,0,100,0,183.85287400000016,,183.7446627999998,10,183.85287400000016,183.85287400000016,0.09351980000064941,186.1408721000007,[-0.255],[-0.095],[1],[0],[0],[2.3051248000010673],[],335825,001,2024-10-04_11h52.26.393,Session5_VisualSearch,2024.1.5,None,2024-10-04 11h52.32.100983 +0530,
101,0,101,0,186.3540423000013,,186.1570580000007,10,186.3540423000013,186.3540423000013,0.14185070000166888,187.7569982999994,[0.38166666666666665],[0.305],[1],[0],[0],[1.4623056999989785],['target'],335825,001,2024-10-04_11h52.26.393,Session5_VisualSearch,2024.1.5,None,2024-10-04 11h52.32.100983 +0530,
102,0,102,0,187.9364213000008,,187.7688894999992,10,187.9364213000008,187.9364213000008,0.10989329999938491,189.70632919999844,[-0.38166666666666665],[-0.275],[1],[0],[0],[1.8297817000020586],['target'],335825,001,2024-10-04_11h52.26.393,Session5_VisualSearch,2024.1.5,None,2024-10-04 11h52.32.100983 +0530,
103,0,103,0,189.93719129999954,,189.72443310000017,10,189.93719129999954,189.93719129999954,0.1443226000010327,191.3398234999986,[0.3466666666666667],[0.37],[1],[0],[0],[1.4748932000002242],['target'],335825,001,2024-10-04_11h52.26.393,Session5_VisualSearch,2024.1.5,None,2024-10-04 11h52.32.100983 +0530,
104,0,104,0,191.43535509999856,,191.35553549999895,5,191.43535509999856,191.43535509999856,0.057715599999937695,192.80474540000068,[-0.43833333333333335],[0.44166666666666665],[1],[0],[0],[1.3971639000010327],['target'],335825,001,2024-10-04_11h52.26.393,Session5_VisualSearch,2024.1.5,None,2024-10-04 11h52.32.100983 +0530,
105,0,105,0,192.88555709999855,,192.81370400000014,5,192.88555709999855,192.88555709999855,0.047154600000794744,194.5541903000012,[-0.31833333333333336],[-0.225],[1],[0],[0],[1.6945715000001655],['target'],335825,001,2024-10-04_11h52.26.393,Session5_VisualSearch,2024.1.5,None,2024-10-04 11h52.32.100983 +0530,
106,0,106,0,194.6353859999981,,194.56502710000132,5,194.6353859999981,194.6353859999981,0.046956300000601914,196.4720215999987,[-0.24],[-0.195],[1],[0],[0],[1.861598600000434],['target'],335825,001,2024-10-04_11h52.26.393,Session5_VisualSearch,2024.1.5,None,2024-10-04 11h52.32.100983 +0530,
107,0,107,0,196.6515806999996,,196.486562099999,10,196.6515806999996,196.6515806999996,0.1206729000004998,198.1582386000009,[-0.051666666666666666],[-0.4116666666666667],[1],[0],[0],[1.5548364000023867],['target'],335825,001,2024-10-04_11h52.26.393,Session5_VisualSearch,2024.1.5,None,2024-10-04 11h52.32.100983 +0530,
108,0,108,0,198.302799699999,,198.17931039999894,5,198.302799699999,198.302799699999,0.08016560000032769,199.84005930000058,[-0.13166666666666665],[0.225],[1],[0],[0],[1.58422320000318],['target'],335825,001,2024-10-04_11h52.26.393,Session5_VisualSearch,2024.1.5,None,2024-10-04 11h52.32.100983 +0530,
109,0,109,0,200.06908029999977,,199.85570110000117,10,200.06908029999977,200.06908029999977,0.14122599999973318,202.0385849000013,[-0.018333333333333333],[-0.29833333333333334],[1],[0],[0],[2.0445767999990494],['target'],335825,001,2024-10-04_11h52.26.393,Session5_VisualSearch,2024.1.5,None,2024-10-04 11h52.32.100983 +0530,
110,0,110,0,202.30240720000074,,202.05802159999803,10,202.30240720000074,202.30240720000074,0.17549099999814644,204.62239580000096,[0.445],[0.043333333333333335],[1],[0],[0],[2.3949869999996736],['target'],335825,001,2024-10-04_11h52.26.393,Session5_VisualSearch,2024.1.5,None,2024-10-04 11h52.32.100983 +0530,
111,0,111,0,204.85170540000036,,204.63815339999928,10,204.85170540000036,204.85170540000036,0.1464345999993384,207.2890864000001,[0.058333333333333334],[-0.14166666666666666],[1],[0],[0],[2.5079121999988274],['target'],335825,001,2024-10-04_11h52.26.393,Session5_VisualSearch,2024.1.5,None,2024-10-04 11h52.32.100983 +0530,
112,0,112,0,207.44976459999816,,207.30500720000055,10,207.44976459999816,207.44976459999816,0.10859720000007655,210.25379959999918,[-0.4116666666666667],[0.2866666666666667],[1],[0],[0],[2.843458399998781],['target'],335825,001,2024-10-04_11h52.26.393,Session5_VisualSearch,2024.1.5,None,2024-10-04 11h52.32.100983 +0530,
113,0,113,0,210.3498784000003,,210.2629639000006,10,210.3498784000003,210.3498784000003,0.06041529999856721,216.68681410000136,[0.31],[0.29833333333333334],[1],[0],[0],[6.364449400000012],[],335825,001,2024-10-04_11h52.26.393,Session5_VisualSearch,2024.1.5,None,2024-10-04 11h52.32.100983 +0530,
114,0,114,0,216.76536230000056,,216.69494549999945,5,216.76536230000056,216.76536230000056,0.04831489999924088,218.16894500000126,[0.22],[0.4066666666666667],[1],[0],[0],[1.4265684999991208],['target'],335825,001,2024-10-04_11h52.26.393,Session5_VisualSearch,2024.1.5,None,2024-10-04 11h52.32.100983 +0530,
115,0,115,0,218.24932830000034,,218.17631099999926,5,218.24932830000034,218.24932830000034,0.045842899999115616,219.80457599999863,[-0.23833333333333334],[-0.09166666666666666],[1],[0],[0],[1.5828583000002254],['target'],335825,001,2024-10-04_11h52.26.393,Session5_VisualSearch,2024.1.5,None,2024-10-04 11h52.32.100983 +0530,
116,0,116,0,219.93300549999913,,219.82269749999978,5,219.93300549999913,219.93300549999913,0.07253270000001066,221.55227139999988,[-0.48],[-0.31],[1],[0],[0],[1.6593797999994422],['target'],335825,001,2024-10-04_11h52.26.393,Session5_VisualSearch,2024.1.5,None,2024-10-04 11h52.32.100983 +0530,
117,0,117,0,221.68358409999928,,221.56794430000082,5,221.68358409999928,221.68358409999928,0.07300500000201282,223.18738870000016,[-0.125],[0.105],[1],[0],[0],[1.5495944000031159],['target'],335825,001,2024-10-04_11h52.26.393,Session5_VisualSearch,2024.1.5,None,2024-10-04 11h52.32.100983 +0530,
118,0,118,0,223.34782740000082,,223.22077229999923,10,223.34782740000082,223.34782740000082,0.09838459999809857,225.10176779999892,[0.3933333333333333],[0.22166666666666668],[1],[0],[0],[1.7886962999982643],['target'],335825,001,2024-10-04_11h52.26.393,Session5_VisualSearch,2024.1.5,None,2024-10-04 11h52.32.100983 +0530,
119,0,119,0,225.34943089999797,,225.11662140000044,10,225.34943089999797,225.34943089999797,0.1430025999979989,228.0020482,[0.045],[-0.07833333333333334],[1],[0],[0],[2.745702000000165],[],335825,001,2024-10-04_11h52.26.393,Session5_VisualSearch,2024.1.5,None,2024-10-04 11h52.32.100983 +0530,
120,0,120,0,228.24758669999937,,228.0196470999981,10,228.24758669999937,228.24758669999937,0.1662343999996665,231.86618069999895,[-0.4683333333333333],[-0.42333333333333334],[1],[0],[0],[3.6847333000005165],['target'],335825,001,2024-10-04_11h52.26.393,Session5_VisualSearch,2024.1.5,None,2024-10-04 11h52.32.100983 +0530,
121,0,121,0,231.96328519999952,,231.87599770000088,10,231.96328519999952,231.96328519999952,0.05804850000276929,233.48483019999912,[0.45166666666666666],[0.17833333333333334],[1],[0],[0],[1.5518386000003375],['target'],335825,001,2024-10-04_11h52.26.393,Session5_VisualSearch,2024.1.5,None,2024-10-04 11h52.32.100983 +0530,
122,0,122,0,233.61440189999848,,233.50185520000014,5,233.61440189999848,233.61440189999848,0.07382620000134921,234.86612310000055,[0.07833333333333334],[-0.10166666666666667],[1],[0],[0],[1.2952399999994668],[],335825,001,2024-10-04_11h52.26.393,Session5_VisualSearch,2024.1.5,None,2024-10-04 11h52.32.100983 +0530,
123,0,123,0,234.97969899999953,,234.8751157000006,10,234.97969899999953,234.97969899999953,0.08469530000002123,237.49803460000112,[0.40166666666666667],[0.2916666666666667],[1],[0],[0],[2.539432100002159],['target'],335825,001,2024-10-04_11h52.26.393,Session5_VisualSearch,2024.1.5,None,2024-10-04 11h52.32.100983 +0530,
124,0,124,0,237.61288109999805,,237.50541840000005,10,237.61288109999805,237.61288109999805,0.0719838000004529,240.2177757999998,[-0.20833333333333334],[-0.025],[1],[0],[0],[2.6408904999989318],['target'],335825,001,2024-10-04_11h52.26.393,Session5_VisualSearch,2024.1.5,None,2024-10-04 11h52.32.100983 +0530,
125,0,125,0,240.4472080000014,,240.2360406000007,10,240.4472080000014,240.4472080000014,0.146225600001344,242.968867399999,[0.48],[0.15666666666666668],[1],[0],[0],[2.5905181000016455],['target'],335825,001,2024-10-04_11h52.26.393,Session5_VisualSearch,2024.1.5,None,2024-10-04 11h52.32.100983 +0530,
126,0,126,0,243.1967528999994,,242.9893376,10,243.1967528999994,243.1967528999994,0.13914999999906286,245.0145392000013,[-0.17166666666666666],[0.19833333333333333],[1],[0],[0],[1.8896662000006472],['target'],335825,001,2024-10-04_11h52.26.393,Session5_VisualSearch,2024.1.5,None,2024-10-04 11h52.32.100983 +0530,
127,0,127,0,245.09592429999975,,245.02373299999817,5,245.09592429999975,245.09592429999975,0.04601539999930537,249.00041670000064,[0.29333333333333333],[-0.37833333333333335],[1],[0],[0],[3.931727299997874],['target'],335825,001,2024-10-04_11h52.26.393,Session5_VisualSearch,2024.1.5,None,2024-10-04 11h52.32.100983 +0530,
128,0,128,0,249.14463429999887,,249.01731859999927,10,249.14463429999887,249.14463429999887,0.09546579999732785,251.13296600000103,[-0.24166666666666667],[-0.36],[1],[0],[0],[2.0214828999996826],['target'],335825,001,2024-10-04_11h52.26.393,Session5_VisualSearch,2024.1.5,None,2024-10-04 11h52.32.100983 +0530,
129,0,129,0,251.2276693999993,,251.15143940000053,5,251.2276693999993,251.2276693999993,0.05513739999878453,252.66623840000102,[-0.415],[-0.08166666666666667],[1],[0],[0],[1.4615383999989717],['target'],335825,001,2024-10-04_11h52.26.393,Session5_VisualSearch,2024.1.5,None,2024-10-04 11h52.32.100983 +0530,
130,0,130,0,252.82771700000012,,252.68241869999838,10,252.82771700000012,252.82771700000012,0.11034499999732361,254.13256249999904,[-0.215],[0.155],[1],[0],[0],[1.3417989000008674],['target'],335825,001,2024-10-04_11h52.26.393,Session5_VisualSearch,2024.1.5,None,2024-10-04 11h52.32.100983 +0530,
131,0,131,0,254.2614778999996,,254.15036559999862,5,254.2614778999996,254.2614778999996,0.07054450000214274,258.3003444999995,[-0.38],[-0.06166666666666667],[1],[0],[0],[4.0813870999991195],['target'],335825,001,2024-10-04_11h52.26.393,Session5_VisualSearch,2024.1.5,None,2024-10-04 11h52.32.100983 +0530,
132,0,132,0,258.4102079000004,,258.31689449999976,5,258.4102079000004,258.4102079000004,0.06574750000072527,264.7301172000007,[0.335],[0.4216666666666667],[1],[0],[0],[6.349999300000491],['target'],335825,001,2024-10-04_11h52.26.393,Session5_VisualSearch,2024.1.5,None,2024-10-04 11h52.32.100983 +0530,
133,0,133,0,264.87577469999815,,264.74620649999997,10,264.87577469999815,264.87577469999815,0.09017780000067432,268.33013469999787,[0.36833333333333335],[0.35],[1],[0],[0],[3.497632099999464],['target'],335825,001,2024-10-04_11h52.26.393,Session5_VisualSearch,2024.1.5,None,2024-10-04 11h52.32.100983 +0530,
134,0,134,0,268.45990619999793,,268.3465388000004,5,268.45990619999793,268.45990619999793,0.07478570000239415,271.1328331000004,[0.33],[-0.10166666666666667],[1],[0],[0],[2.715406300001632],['target'],335825,001,2024-10-04_11h52.26.393,Session5_VisualSearch,2024.1.5,None,2024-10-04 11h52.32.100983 +0530,
135,0,135,0,271.2249953999999,,271.14857420000044,10,271.2249953999999,271.2249953999999,0.06261770000128308,272.713233399998,[0.15333333333333332],[-0.17833333333333334],[1],[0],[0],[1.504403499999171],['target'],335825,001,2024-10-04_11h52.26.393,Session5_VisualSearch,2024.1.5,None,2024-10-04 11h52.32.100983 +0530,
136,0,136,0,272.92668290000074,,272.7316374000002,10,272.92668290000074,272.92668290000074,0.1396110999994562,275.04607899999974,[-0.31666666666666665],[-0.35833333333333334],[1],[0],[0],[2.1771954000032565],['target'],335825,001,2024-10-04_11h52.26.393,Session5_VisualSearch,2024.1.5,None,2024-10-04 11h52.32.100983 +0530,
137,0,137,0,275.17606349999915,,275.0633396000012,5,275.17606349999915,275.17606349999915,0.07128399999783142,276.5636290000002,[-0.25],[0.295],[1],[0],[0],[1.4323894000008295],['target'],335825,001,2024-10-04_11h52.26.393,Session5_VisualSearch,2024.1.5,None,2024-10-04 11h52.32.100983 +0530,
138,0,138,0,276.79288480000105,,276.58328790000087,10,276.79288480000105,276.79288480000105,0.14757239999744343,279.37601839999843,[0.34833333333333333],[-0.3333333333333333],[1],[0],[0],[2.6480257000002894],['target'],335825,001,2024-10-04_11h52.26.393,Session5_VisualSearch,2024.1.5,None,2024-10-04 11h52.32.100983 +0530,
139,0,139,0,279.4904428000009,,279.3835164999982,10,279.4904428000009,279.4904428000009,0.07121470000129193,281.3256576999993,[0.03833333333333333],[0.325],[1],[0],[0],[1.8721034999980475],['target'],335825,001,2024-10-04_11h52.26.393,Session5_VisualSearch,2024.1.5,None,2024-10-04 11h52.32.100983 +0530,
140,0,140,0,281.4238151999998,,281.3332570999992,10,281.4238151999998,281.4238151999998,0.05989240000053542,284.34214989999964,[0.39],[-0.2916666666666667],[1],[0],[0],[2.9498733000000357],[],335825,001,2024-10-04_11h52.26.393,Session5_VisualSearch,2024.1.5,None,2024-10-04 11h52.32.100983 +0530,
141,0,141,0,284.4069400999979,,284.34888950000095,5,284.4069400999979,284.4069400999979,0.03657989999919664,285.79511939999793,[-0.27166666666666667],[-0.15833333333333333],[1],[0],[0],[1.409926500000438],['target'],335825,001,2024-10-04_11h52.26.393,Session5_VisualSearch,2024.1.5,None,2024-10-04 11h52.32.100983 +0530,
142,0,142,0,286.008097599999,,285.81147729999793,10,286.008097599999,286.008097599999,0.14155709999977262,287.9621162000003,[-0.185],[0.27166666666666667],[1],[0],[0],[2.010526199999731],[],335825,001,2024-10-04_11h52.26.393,Session5_VisualSearch,2024.1.5,None,2024-10-04 11h52.32.100983 +0530,
143,0,143,0,288.1401444000003,,287.9814757999993,10,288.1401444000003,288.1401444000003,0.11398199999894132,289.4443484000003,[0.4083333333333333],[0.27166666666666667],[1],[0],[0],[1.3519864000008965],['target'],335825,001,2024-10-04_11h52.26.393,Session5_VisualSearch,2024.1.5,None,2024-10-04 11h52.32.100983 +0530,
144,0,144,0,289.53918390000035,,289.459208100001,5,289.53918390000035,289.53918390000035,0.06307649999871501,290.59398729999884,[0.10666666666666667],[0.26166666666666666],[1],[0],[0],[1.0743509999992966],['target'],335825,001,2024-10-04_11h52.26.393,Session5_VisualSearch,2024.1.5,None,2024-10-04 11h52.32.100983 +0530,
145,0,145,0,290.7410767000001,,290.618641699999,5,290.7410767000001,290.7410767000001,0.0877189000020735,292.09530209999866,[-0.415],[0.3433333333333333],[1],[0],[0],[1.3954745999981242],['target'],335825,001,2024-10-04_11h52.26.393,Session5_VisualSearch,2024.1.5,None,2024-10-04 11h52.32.100983 +0530,
146,0,146,0,292.2403470999998,,292.11093919999985,5,292.2403470999998,292.2403470999998,0.08676709999781451,293.5265757999987,[0.035],[-0.22],[1],[0],[0],[1.3324623000007705],['target'],335825,001,2024-10-04_11h52.26.393,Session5_VisualSearch,2024.1.5,None,2024-10-04 11h52.32.100983 +0530,
147,0,147,0,293.62216249999983,,293.5487886999981,5,293.62216249999983,293.62216249999983,0.05493980000028387,295.06024350000007,[0.48],[-0.18166666666666667],[1],[0],[0],[1.458605699997861],['target'],335825,001,2024-10-04_11h52.26.393,Session5_VisualSearch,2024.1.5,None,2024-10-04 11h52.32.100983 +0530,
148,0,148,0,295.1899080000003,,295.07715889999963,5,295.1899080000003,295.1899080000003,0.07525150000219583,296.39064660000076,[0.36],[0.03333333333333333],[1],[0],[0],[1.242256699999416],['target'],335825,001,2024-10-04_11h52.26.393,Session5_VisualSearch,2024.1.5,None,2024-10-04 11h52.32.100983 +0530,
149,0,149,0,296.4879731000001,,296.3996871999989,10,296.4879731000001,296.4879731000001,0.06914599999799975,297.7402135000011,[0.14666666666666667],[-0.028333333333333332],[1],[0],[0],[1.2725995000000694],['target'],335825,001,2024-10-04_11h52.26.393,Session5_VisualSearch,2024.1.5,None,2024-10-04 11h52.32.100983 +0530,
150,0,150,0,297.80496180000046,,297.7476171999988,5,297.80496180000046,297.80496180000046,0.03646700000172132,299.6744260000014,[-0.33166666666666667],[-0.008333333333333333],[1],[0],[0],[1.8910525999999663],['target'],335825,001,2024-10-04_11h52.26.393,Session5_VisualSearch,2024.1.5,None,2024-10-04 11h52.32.100983 +0530,
151,0,151,0,299.82167560000016,,299.68612510000094,10,299.82167560000016,299.82167560000016,0.09729520000109915,301.2922350999979,[-0.205],[-0.07833333333333334],[1],[0],[0],[1.510146699998586],['target'],335825,001,2024-10-04_11h52.26.393,Session5_VisualSearch,2024.1.5,None,2024-10-04 11h52.32.100983 +0530,
152,0,152,0,301.4222660000014,,301.3078663999986,5,301.4222660000014,301.4222660000014,0.07418239999969956,303.92606570000135,[0.4166666666666667],[0.4633333333333333],[1],[0],[0],[2.5479224999980943],['target'],335825,001,2024-10-04_11h52.26.393,Session5_VisualSearch,2024.1.5,None,2024-10-04 11h52.32.100983 +0530,
153,0,153,0,304.05607489999966,,303.9443509999983,5,304.05607489999966,304.05607489999966,0.07366920000276878,305.2915433999988,[-0.465],[0.2633333333333333],[1],[0],[0],[1.2782156999965082],['target'],335825,001,2024-10-04_11h52.26.393,Session5_VisualSearch,2024.1.5,None,2024-10-04 11h52.32.100983 +0530,
154,0,154,0,305.48750949999885,,305.3080306000011,10,305.48750949999885,305.48750949999885,0.14187109999693348,308.8391377000007,[0.2866666666666667],[0.25166666666666665],[1],[0],[0],[3.3934103999999934],['target'],335825,001,2024-10-04_11h52.26.393,Session5_VisualSearch,2024.1.5,None,2024-10-04 11h52.32.100983 +0530,
155,0,155,0,308.9707530000014,,308.8474083000001,10,308.9707530000014,308.9707530000014,0.07843530000172905,310.4079187999996,[0.09833333333333333],[-0.19833333333333333],[1],[0],[0],[1.48259550000148],['target'],335825,001,2024-10-04_11h52.26.393,Session5_VisualSearch,2024.1.5,None,2024-10-04 11h52.32.100983 +0530,
156,0,156,0,310.5202090999992,,310.4246284000001,5,310.5202090999992,310.5202090999992,0.05967850000160979,311.82287390000056,[0.2816666666666667],[0.12166666666666667],[1],[0],[0],[1.3420988999969268],['target'],335825,001,2024-10-04_11h52.26.393,Session5_VisualSearch,2024.1.5,None,2024-10-04 11h52.32.100983 +0530,
157,0,157,0,311.90360560000045,,311.83141819999946,5,311.90360560000045,311.90360560000045,0.046274000000266824,312.98888369999986,[0.4583333333333333],[0.16166666666666665],[1],[0],[0],[1.1123909999987518],['target'],335825,001,2024-10-04_11h52.26.393,Session5_VisualSearch,2024.1.5,None,2024-10-04 11h52.32.100983 +0530,
158,0,158,0,313.0863200999993,,313.00727560000087,5,313.0863200999993,313.0863200999993,0.05009470000004512,314.5561319999979,[-0.24166666666666667],[-0.17166666666666666],[1],[0],[0],[1.5014138000005914],[],335825,001,2024-10-04_11h52.26.393,Session5_VisualSearch,2024.1.5,None,2024-10-04 11h52.32.100983 +0530,
159,0,159,0,314.7032078000011,,314.5645665999982,10,314.7032078000011,314.7032078000011,0.09144920000107959,316.7211772999981,[-0.021666666666666667],[-0.275],[1],[0],[0],[2.066357399999106],['target'],335825,001,2024-10-04_11h52.26.393,Session5_VisualSearch,2024.1.5,None,2024-10-04 11h52.32.100983 +0530,
160,0,160,0,316.7865684999997,,316.7282200000009,5,316.7865684999997,316.7865684999997,0.03604800000175601,318.9885299999987,[-0.005],[0.37333333333333335],[1],[0],[0],[2.2247752000002947],['target'],335825,001,2024-10-04_11h52.26.393,Session5_VisualSearch,2024.1.5,None,2024-10-04 11h52.32.100983 +0530,
161,0,161,0,319.069161899999,,318.9970323999987,5,319.069161899999,319.069161899999,0.047246099999028957,320.40459329999794,[0.33],[-0.018333333333333333],[1],[0],[0],[1.361431299999822],['target'],335825,001,2024-10-04_11h52.26.393,Session5_VisualSearch,2024.1.5,None,2024-10-04 11h52.32.100983 +0530,
162,0,162,0,320.5356275000013,,320.4133101000007,10,320.5356275000013,320.5356275000013,0.0894120999982988,321.9391778999998,[0.275],[0.14333333333333334],[1],[0],[0],[1.4373214000006556],['target'],335825,001,2024-10-04_11h52.26.393,Session5_VisualSearch,2024.1.5,None,2024-10-04 11h52.32.100983 +0530,
163,0,163,0,322.0697908000002,,321.95492100000047,5,322.0697908000002,322.0697908000002,0.0768181999992521,323.47300299999915,[-0.21833333333333332],[-0.06333333333333334],[1],[0],[0],[1.4450266999992891],['target'],335825,001,2024-10-04_11h52.26.393,Session5_VisualSearch,2024.1.5,None,2024-10-04 11h52.32.100983 +0530,
164,0,164,0,323.6033916999986,,323.4892269000011,5,323.6033916999986,323.6033916999986,0.07397380000111298,325.02309519999835,[0.275],[-0.105],[1],[0],[0],[1.4633494000008795],['target'],335825,001,2024-10-04_11h52.26.393,Session5_VisualSearch,2024.1.5,None,2024-10-04 11h52.32.100983 +0530,
165,0,165,0,325.2528373999994,,325.04096220000065,10,325.2528373999994,325.2528373999994,0.14260030000150437,326.7898720000012,[-0.125],[-0.11166666666666666],[1],[0],[0],[1.61010289999831],['target'],335825,001,2024-10-04_11h52.26.393,Session5_VisualSearch,2024.1.5,None,2024-10-04 11h52.32.100983 +0530,
166,0,166,0,326.92007119999835,,326.80961000000025,5,326.92007119999835,326.92007119999835,0.07845389999783947,328.7893874000001,[0.225],[0.14833333333333334],[1],[0],[0],[1.9068021999992197],['target'],335825,001,2024-10-04_11h52.26.393,Session5_VisualSearch,2024.1.5,None,2024-10-04 11h52.32.100983 +0530,
167,0,167,0,329.01899200000116,,328.8060853999996,10,329.01899200000116,329.01899200000116,0.1516764999978477,331.50727539999934,[-0.435],[-0.38166666666666665],[1],[0],[0],[2.5525488999992376],['target'],335825,001,2024-10-04_11h52.26.393,Session5_VisualSearch,2024.1.5,None,2024-10-04 11h52.32.100983 +0530,
168,0,168,0,331.63503389999823,,331.5241848000005,5,331.63503389999823,331.63503389999823,0.07269869999799994,334.0884929999993,[0.4216666666666667],[-0.445],[1],[0],[0],[2.494325600000593],['target'],335825,001,2024-10-04_11h52.26.393,Session5_VisualSearch,2024.1.5,None,2024-10-04 11h52.32.100983 +0530,
169,0,169,0,334.2182877999985,,334.1052955000014,5,334.2182877999985,334.2182877999985,0.07551999999850523,335.45443030000024,[0.21833333333333332],[-0.365],[1],[0],[0],[1.2778890000008687],['target'],335825,001,2024-10-04_11h52.26.393,Session5_VisualSearch,2024.1.5,None,2024-10-04 11h52.32.100983 +0530,
170,0,170,0,335.6856270999997,,335.470126799999,10,335.6856270999997,335.6856270999997,0.1430648999994446,337.07230659999914,[-0.25833333333333336],[-0.36833333333333335],[1],[0],[0],[1.4626994999998715],['target'],335825,001,2024-10-04_11h52.26.393,Session5_VisualSearch,2024.1.5,None,2024-10-04 11h52.32.100983 +0530,
171,0,171,0,337.2843259000001,,337.0883962000007,10,337.2843259000001,337.2843259000001,0.13973469999837107,338.70266189999893,[0.16166666666666665],[0.255],[1],[0],[0],[1.4772770000017772],['target'],335825,001,2024-10-04_11h52.26.393,Session5_VisualSearch,2024.1.5,None,2024-10-04 11h52.32.100983 +0530,
172,0,172,0,338.8165087999987,,338.7117352999994,10,338.8165087999987,338.8165087999987,0.084113900000375,341.48559110000133,[-0.17166666666666666],[0.375],[1],[0],[0],[2.69086889999744],['target'],335825,001,2024-10-04_11h52.26.393,Session5_VisualSearch,2024.1.5,None,2024-10-04 11h52.32.100983 +0530,
173,0,173,0,341.5995292000007,,341.4924855999998,10,341.5995292000007,341.5995292000007,0.07053209999867249,343.08936320000066,[-0.425],[0.195],[1],[0],[0],[1.5268871999978728],['target'],335825,001,2024-10-04_11h52.26.393,Session5_VisualSearch,2024.1.5,None,2024-10-04 11h52.32.100983 +0530,
174,0,174,0,343.2346909000007,,343.11276689999795,5,343.2346909000007,343.2346909000007,0.08563470000080997,344.55488239999977,[0.345],[0.175],[1],[0],[0],[1.3596533999989333],['target'],335825,001,2024-10-04_11h52.26.393,Session5_VisualSearch,2024.1.5,None,2024-10-04 11h52.32.100983 +0530,
175,0,175,0,344.7488302999991,,344.57032120000076,10,344.7488302999991,344.7488302999991,0.14268449999872246,346.0865578999983,[-0.06166666666666667],[0.13],[1],[0],[0],[1.3769342000014149],['target'],335825,001,2024-10-04_11h52.26.393,Session5_VisualSearch,2024.1.5,None,2024-10-04 11h52.32.100983 +0530,
176,0,176,0,346.3167093999982,,346.1030323999985,10,346.3167093999982,346.3167093999982,0.1421927000010328,348.20360430000073,[-0.095],[-0.26666666666666666],[1],[0],[0],[1.9619139000024006],['target'],335825,001,2024-10-04_11h52.26.393,Session5_VisualSearch,2024.1.5,None,2024-10-04 11h52.32.100983 +0530,
177,0,177,0,348.3339906000001,,348.2202577999997,5,348.3339906000001,348.3339906000001,0.07286269999895012,350.31988920000003,[0.49666666666666665],[0.45],[1],[0],[0],[2.0314350000007835],['target'],335825,001,2024-10-04_11h52.26.393,Session5_VisualSearch,2024.1.5,None,2024-10-04 11h52.32.100983 +0530,
178,0,178,0,350.4496470999984,,350.3377207000012,5,350.4496470999984,350.4496470999984,0.07508940000116127,352.468748700001,[0.21333333333333335],[-0.255],[1],[0],[0],[2.0597597000014503],['target'],335825,001,2024-10-04_11h52.26.393,Session5_VisualSearch,2024.1.5,None,2024-10-04 11h52.32.100983 +0530,
179,0,179,0,352.59920520000014,,352.48776050000015,5,352.59920520000014,352.59920520000014,0.07496189999801572,353.8720184999984,[-0.011666666666666667],[0.095],[1],[0],[0],[1.3147611999993387],['target'],335825,001,2024-10-04_11h52.26.393,Session5_VisualSearch,2024.1.5,None,2024-10-04 11h52.32.100983 +0530,
180,0,180,0,354.01594280000063,,353.8892639000005,5,354.01594280000063,354.01594280000063,0.0943293000018457,355.46852659999786,[-0.23833333333333334],[-0.315],[1],[0],[0],[1.486743800000113],['target'],335825,001,2024-10-04_11h52.26.393,Session5_VisualSearch,2024.1.5,None,2024-10-04 11h52.32.100983 +0530,
181,0,181,0,355.5979800999994,,355.48618630000055,10,355.5979800999994,355.5979800999994,0.09440299999914714,357.06623630000104,[0.025],[0.035],[1],[0],[0],[1.4906678999977885],['target'],335825,001,2024-10-04_11h52.26.393,Session5_VisualSearch,2024.1.5,None,2024-10-04 11h52.32.100983 +0530,
182,0,182,0,357.1807031999997,,357.07321629999933,10,357.1807031999997,357.1807031999997,0.07985740000003716,358.2508276000008,[-0.025],[0.02666666666666667],[1],[0],[0],[1.0987366000008478],['target'],335825,001,2024-10-04_11h52.26.393,Session5_VisualSearch,2024.1.5,None,2024-10-04 11h52.32.100983 +0530,
183,0,183,0,358.3139947999989,,358.2578582999995,5,358.3139947999989,358.3139947999989,0.036395200000697514,360.01652789999935,[0.4216666666666667],[0.365],[1],[0],[0],[1.7230501999983971],['target'],335825,001,2024-10-04_11h52.26.393,Session5_VisualSearch,2024.1.5,None,2024-10-04 11h52.32.100983 +0530,
184,0,184,0,360.0972327999989,,360.0257863000006,5,360.0972327999989,360.0972327999989,0.047863799998594914,361.2335798999993,[0.14166666666666666],[0.23833333333333334],[1],[0],[0],[1.1610827000004065],[],335825,001,2024-10-04_11h52.26.393,Session5_VisualSearch,2024.1.5,None,2024-10-04 11h52.32.100983 +0530,
185,0,185,0,361.3139706000002,,361.24225429999933,5,361.3139706000002,361.3139706000002,0.04897100000016508,363.66894350000075,[-0.44],[-0.32],[1],[0],[0],[2.3783977999992203],['target'],335825,001,2024-10-04_11h52.26.393,Session5_VisualSearch,2024.1.5,None,2024-10-04 11h52.32.100983 +0530,
186,0,186,0,363.79801849999785,,363.68689470000027,5,363.79801849999785,363.79801849999785,0.06923580000147922,364.95051469999817,[-0.445],[-0.11833333333333333],[1],[0],[0],[1.1971073000022443],['target'],335825,001,2024-10-04_11h52.26.393,Session5_VisualSearch,2024.1.5,None,2024-10-04 11h52.32.100983 +0530,
187,0,187,0,365.0470889999997,,364.9696036999994,5,365.0470889999997,365.0470889999997,0.04718069999944419,366.4343566999996,[0.008333333333333333],[-0.19],[1],[0],[0],[1.4182001000008313],['target'],335825,001,2024-10-04_11h52.26.393,Session5_VisualSearch,2024.1.5,None,2024-10-04 11h52.32.100983 +0530,
188,0,188,0,366.5294279000009,,366.44978679999986,5,366.5294279000009,366.5294279000009,0.05740409999998519,367.94945639999787,[-0.44166666666666665],[-0.11833333333333333],[1],[0],[0],[1.4462486000011268],['target'],335825,001,2024-10-04_11h52.26.393,Session5_VisualSearch,2024.1.5,None,2024-10-04 11h52.32.100983 +0530,
189,0,189,0,368.0455675000012,,367.96064939999997,5,368.0455675000012,368.0455675000012,0.0637204999984533,369.4816648999986,[-0.31333333333333335],[0.34833333333333333],[1],[0],[0],[1.459372400000575],['target'],335825,001,2024-10-04_11h52.26.393,Session5_VisualSearch,2024.1.5,None,2024-10-04 11h52.32.100983 +0530,
190,0,190,0,369.54557170000044,,369.48909699999786,5,369.54557170000044,369.54557170000044,0.0369341000005079,371.3982250000008,[-0.36333333333333334],[-0.45666666666666667],[1],[0],[0],[1.8731219000001147],['target'],335825,001,2024-10-04_11h52.26.393,Session5_VisualSearch,2024.1.5,None,2024-10-04 11h52.32.100983 +0530,
191,0,191,0,371.51200529999915,,371.40541160000066,10,371.51200529999915,371.51200529999915,0.07024140000066836,372.851153399999,[-0.4816666666666667],[-0.4033333333333333],[1],[0],[0],[1.376058900001226],['target'],335825,001,2024-10-04_11h52.26.393,Session5_VisualSearch,2024.1.5,None,2024-10-04 11h52.32.100983 +0530,
192,0,192,0,373.0809268999983,,372.86755149999954,10,373.0809268999983,373.0809268999983,0.15740679999726126,374.80065470000045,[0.275],[-0.06166666666666667],[1],[0],[0],[1.7775901999993948],['target'],335825,001,2024-10-04_11h52.26.393,Session5_VisualSearch,2024.1.5,None,2024-10-04 11h52.32.100983 +0530,
193,0,193,0,375.0306606999984,,374.81845500000054,10,375.0306606999984,375.0306606999984,0.14121789999990142,376.28359609999825,[0.31],[0.005],[1],[0],[0],[1.326277399999526],['target'],335825,001,2024-10-04_11h52.26.393,Session5_VisualSearch,2024.1.5,None,2024-10-04 11h52.32.100983 +0530,
194,0,194,0,376.41165120000005,,376.302076699998,5,376.41165120000005,376.41165120000005,0.07221199999912642,379.1837486000004,[-0.17833333333333334],[-0.455],[1],[0],[0],[2.8139532999994117],['target'],335825,001,2024-10-04_11h52.26.393,Session5_VisualSearch,2024.1.5,None,2024-10-04 11h52.32.100983 +0530,
195,0,195,0,379.313139599999,,379.20006809999904,5,379.313139599999,379.313139599999,0.0693223999987822,380.78200749999814,[-0.14],[-0.105],[1],[0],[0],[1.514659099997516],['target'],335825,001,2024-10-04_11h52.26.393,Session5_VisualSearch,2024.1.5,None,2024-10-04 11h52.32.100983 +0530,
196,0,196,0,380.91135759999815,,380.80103170000075,5,380.91135759999815,380.91135759999815,0.07378409999728319,382.4505132000013,[-0.445],[-0.295],[1],[0],[0],[1.5805789999976696],['target'],335825,001,2024-10-04_11h52.26.393,Session5_VisualSearch,2024.1.5,None,2024-10-04 11h52.32.100983 +0530,
197,0,197,0,382.5786536000014,,382.4681863000005,5,382.5786536000014,382.5786536000014,0.06971429999975953,384.28299530000004,[-0.3383333333333333],[0.405],[1],[0],[0],[1.7470152999994752],['target'],335825,001,2024-10-04_11h52.26.393,Session5_VisualSearch,2024.1.5,None,2024-10-04 11h52.32.100983 +0530,
198,0,198,0,384.4947214999993,,384.3004127999993,10,384.4947214999993,384.4947214999993,0.13947729999927105,386.67895769999814,[-0.10666666666666667],[-0.025],[1],[0],[0],[2.2415050999989035],['target'],335825,001,2024-10-04_11h52.26.393,Session5_VisualSearch,2024.1.5,None,2024-10-04 11h52.32.100983 +0530,
199,0,199,0,386.74389959999826,,386.68595600000117,5,386.74389959999826,386.74389959999826,0.03649249999944004,388.4315380000007,[0.31333333333333335],[0.3983333333333333],[1],[0],[0],[1.7095570999990741],['target'],335825,001,2024-10-04_11h52.26.393,Session5_VisualSearch,2024.1.5,None,2024-10-04 11h52.32.100983 +0530,
