trials.thisRepN,trials.thisTrialN,trials.thisN,trials.thisIndex,thisRow.t,notes,trial.started,num_distr,Fixation.started,target.started,mouse.started,trial.stopped,mouse.x,mouse.y,mouse.leftButton,mouse.midButton,mouse.rightButton,mouse.time,mouse.clicked_name,participant,session,date,expName,psychopyVersion,frameRate,expStart,
0,0,0,0,0.3403184999988298,,0.08615279999867198,10,0.3403184999988298,0.3403184999988298,0.2740157999978692,11.38905469999736,[-0.19],[-0.485],[1],[0],[0],[11.114141699999891],['target'],619801,001,2024-10-04_11h38.49.327,Session5_VisualSearch,2024.1.5,None,2024-10-04 11h38.55.532295 +0530,
1,0,1,0,11.502726899998379,,11.400432799997361,10,11.502726899998379,11.502726899998379,0.08241020000059507,15.175478799999837,[0.35],[0.4],[1],[0],[0],[3.693482499998936],['target'],619801,001,2024-10-04_11h38.49.327,Session5_VisualSearch,2024.1.5,None,2024-10-04 11h38.55.532295 +0530,
2,0,2,0,15.304344399999536,,15.192736699998932,5,15.304344399999536,15.304344399999536,0.0739601000022958,17.47401549999995,[-0.2866666666666667],[-0.2],[1],[0],[0],[2.2092752999997174],['target'],619801,001,2024-10-04_11h38.49.327,Session5_VisualSearch,2024.1.5,None,2024-10-04 11h38.55.532295 +0530,
3,0,3,0,17.68676779999805,,17.488890299999184,10,17.68676779999805,17.68676779999805,0.14032550000047195,19.2900312999991,[0.2683333333333333],[-0.13833333333333334],[1],[0],[0],[1.6642092000001867],['target'],619801,001,2024-10-04_11h38.49.327,Session5_VisualSearch,2024.1.5,None,2024-10-04 11h38.55.532295 +0530,
4,0,4,0,19.52031309999802,,19.305769899998268,10,19.52031309999802,19.52031309999802,0.14445039999918663,21.020471299998462,[0.125],[0.08166666666666667],[1],[0],[0],[1.5737624000030337],['target'],619801,001,2024-10-04_11h38.49.327,Session5_VisualSearch,2024.1.5,None,2024-10-04 11h38.55.532295 +0530,
5,0,5,0,21.084758499997406,,21.02755139999863,5,21.084758499997406,21.084758499997406,0.03655419999995502,23.738184699999692,[-0.22166666666666668],[-0.4683333333333333],[1],[0],[0],[2.6749740000013844],['target'],619801,001,2024-10-04_11h38.49.327,Session5_VisualSearch,2024.1.5,None,2024-10-04 11h38.55.532295 +0530,
6,0,6,0,23.83485870000004,,23.745335999999952,10,23.83485870000004,23.83485870000004,0.06028839999999036,25.772608699997363,[0.2866666666666667],[0.16333333333333333],[1],[0],[0],[1.967242000002443],['target'],619801,001,2024-10-04_11h38.49.327,Session5_VisualSearch,2024.1.5,None,2024-10-04 11h38.55.532295 +0530,
7,0,7,0,25.885490199998458,,25.790324800000235,5,25.885490199998458,25.885490199998458,0.06641020000097342,29.49155249999967,[-0.44166666666666665],[0.465],[1],[0],[0],[3.638769400000456],['target'],619801,001,2024-10-04_11h38.49.327,Session5_VisualSearch,2024.1.5,None,2024-10-04 11h38.55.532295 +0530,
8,0,8,0,29.735160699998232,,29.521046199999546,10,29.735160699998232,29.735160699998232,0.1474263999989489,33.973074199999246,[0.23333333333333334],[0.016666666666666666],[1],[0],[0],[4.308950200000254],['target'],619801,001,2024-10-04_11h38.49.327,Session5_VisualSearch,2024.1.5,None,2024-10-04 11h38.55.532295 +0530,
9,0,9,0,34.18450769999981,,33.99096399999689,10,34.18450769999981,34.18450769999981,0.13941249999697902,36.36881489999723,[0.18333333333333332],[0.45],[1],[0],[0],[2.240563100000145],['target'],619801,001,2024-10-04_11h38.49.327,Session5_VisualSearch,2024.1.5,None,2024-10-04 11h38.55.532295 +0530,
10,0,10,0,36.43293099999937,,36.37568189999729,5,36.43293099999937,36.43293099999937,0.03612599999905797,37.970635999998194,[0.11666666666666667],[0.08666666666666667],[1],[0],[0],[1.5593794000014896],['target'],619801,001,2024-10-04_11h38.49.327,Session5_VisualSearch,2024.1.5,None,2024-10-04 11h38.55.532295 +0530,
11,0,11,0,38.083073499998136,,37.98028779999731,10,38.083073499998136,38.083073499998136,0.07671330000084708,39.85429479999948,[0.35833333333333334],[0.43833333333333335],[1],[0],[0],[1.7983878000013647],['target'],619801,001,2024-10-04_11h38.49.327,Session5_VisualSearch,2024.1.5,None,2024-10-04 11h38.55.532295 +0530,
12,0,12,0,40.01569129999916,,39.871336999996856,10,40.01569129999916,40.01569129999916,0.11278889999812236,43.53704469999866,[0.4683333333333333],[-0.10833333333333334],[1],[0],[0],[3.554780099999334],['target'],619801,001,2024-10-04_11h38.49.327,Session5_VisualSearch,2024.1.5,None,2024-10-04 11h38.55.532295 +0530,
13,0,13,0,43.76728109999749,,43.55583659999684,10,43.76728109999749,43.76728109999749,0.1407087000006868,46.25236589999986,[-0.48],[-0.4683333333333333],[1],[0],[0],[2.5579385999990336],['target'],619801,001,2024-10-04_11h38.49.327,Session5_VisualSearch,2024.1.5,None,2024-10-04 11h38.55.532295 +0530,
14,0,14,0,46.4483395999996,,46.27672600000005,10,46.4483395999996,46.4483395999996,0.14312550000249757,48.37123950000023,[0.06],[0.03166666666666667],[1],[0],[0],[1.9558456999984628],['target'],619801,001,2024-10-04_11h38.49.327,Session5_VisualSearch,2024.1.5,None,2024-10-04 11h38.55.532295 +0530,
15,0,15,0,48.4994392999979,,48.387387099999614,5,48.4994392999979,48.4994392999979,0.07526809999762918,52.23624139999811,[-0.23833333333333334],[-0.028333333333333332],[1],[0],[0],[3.775667699999758],['target'],619801,001,2024-10-04_11h38.49.327,Session5_VisualSearch,2024.1.5,None,2024-10-04 11h38.55.532295 +0530,
16,0,16,0,52.380587699997704,,52.253974199997174,10,52.380587699997704,52.380587699997704,0.11123380000208272,55.8188928999989,[-0.38666666666666666],[-0.29],[1],[0],[0],[3.45604689999891],['target'],619801,001,2024-10-04_11h38.49.327,Session5_VisualSearch,2024.1.5,None,2024-10-04 11h38.55.532295 +0530,
17,0,17,0,56.06603289999839,,55.83511869999711,10,56.06603289999839,56.06603289999839,0.1450805999993463,57.90245539999887,[0.12833333333333333],[-0.08333333333333333],[1],[0],[0],[1.925412000000506],['target'],619801,001,2024-10-04_11h38.49.327,Session5_VisualSearch,2024.1.5,None,2024-10-04 11h38.55.532295 +0530,
18,0,18,0,58.149121899998136,,57.918527699999686,10,58.149121899998136,58.149121899998136,0.16072599999824888,61.6827134999985,[0.25],[0.22833333333333333],[1],[0],[0],[3.6071809000022768],['target'],619801,001,2024-10-04_11h38.49.327,Session5_VisualSearch,2024.1.5,None,2024-10-04 11h38.55.532295 +0530,
19,0,19,0,61.862937599998986,,61.69256039999891,10,61.862937599998986,61.862937599998986,0.1346850000008999,64.23171249999723,[0.30666666666666664],[0.07833333333333334],[1],[0],[0],[2.406126400001085],['target'],619801,001,2024-10-04_11h38.49.327,Session5_VisualSearch,2024.1.5,None,2024-10-04 11h38.55.532295 +0530,
20,0,20,0,64.34611640000003,,64.23925869999948,10,64.34611640000003,64.34611640000003,0.07191299999976764,67.07129429999986,[-0.16666666666666666],[0.13833333333333334],[1],[0],[0],[2.760428800000227],['target'],619801,001,2024-10-04_11h38.49.327,Session5_VisualSearch,2024.1.5,None,2024-10-04 11h38.55.532295 +0530,
21,0,21,0,67.29830479999873,,67.09042169999884,10,67.29830479999873,67.29830479999873,0.14569990000018151,69.81752549999874,[-0.03833333333333333],[0.225],[1],[0],[0],[2.583098200000677],['target'],619801,001,2024-10-04_11h38.49.327,Session5_VisualSearch,2024.1.5,None,2024-10-04 11h38.55.532295 +0530,
22,0,22,0,69.99500409999746,,69.83618799999749,10,69.99500409999746,69.99500409999746,0.13342459999694256,71.56637589999809,[-0.065],[0.2916666666666667],[1],[0],[0],[1.598733099999663],['target'],619801,001,2024-10-04_11h38.49.327,Session5_VisualSearch,2024.1.5,None,2024-10-04 11h38.55.532295 +0530,
23,0,23,0,71.79679989999931,,71.58361609999702,10,71.79679989999931,71.79679989999931,0.14614129999972647,77.06387279999763,[-0.3283333333333333],[-0.425],[1],[0],[0],[5.338837899998907],['target'],619801,001,2024-10-04_11h38.49.327,Session5_VisualSearch,2024.1.5,None,2024-10-04 11h38.55.532295 +0530,
24,0,24,0,77.16104169999744,,77.06914269999834,10,77.16104169999744,77.16104169999744,0.05934829999750946,81.86621019999802,[-0.15333333333333332],[0.0016666666666666668],[1],[0],[0],[4.737998399999924],['target'],619801,001,2024-10-04_11h38.49.327,Session5_VisualSearch,2024.1.5,None,2024-10-04 11h38.55.532295 +0530,
25,0,25,0,82.09728079999695,,81.88244669999767,10,82.09728079999695,82.09728079999695,0.14479179999761982,85.79874930000005,[0.43],[0.15166666666666667],[1],[0],[0],[3.774529499998607],['target'],619801,001,2024-10-04_11h38.49.327,Session5_VisualSearch,2024.1.5,None,2024-10-04 11h38.55.532295 +0530,
26,0,26,0,86.02808919999734,,85.81927779999751,10,86.02808919999734,86.02808919999734,0.14747829999760143,92.21163309999974,[0.49166666666666664],[0.48],[1],[0],[0],[6.24833850000141],['target'],619801,001,2024-10-04_11h38.49.327,Session5_VisualSearch,2024.1.5,None,2024-10-04 11h38.55.532295 +0530,
27,0,27,0,92.27579709999918,,92.21862009999677,5,92.27579709999918,92.27579709999918,0.03754639999897336,99.74711369999932,[0.49333333333333335],[0.19],[1],[0],[0],[7.491184299997258],['target'],619801,001,2024-10-04_11h38.49.327,Session5_VisualSearch,2024.1.5,None,2024-10-04 11h38.55.532295 +0530,
28,0,28,0,99.87629129999914,,99.76703479999924,5,99.87629129999914,99.87629129999914,0.07758019999891985,105.72854979999829,[0.21166666666666667],[-0.275],[1],[0],[0],[5.8875403000020015],['target'],619801,001,2024-10-04_11h38.49.327,Session5_VisualSearch,2024.1.5,None,2024-10-04 11h38.55.532295 +0530,
29,0,29,0,105.80733189999955,,105.74627999999939,5,105.80733189999955,105.80733189999955,0.04740939999828697,107.87561959999948,[-0.21],[0.3933333333333333],[1],[0],[0],[2.0858745000005],['target'],619801,001,2024-10-04_11h38.49.327,Session5_VisualSearch,2024.1.5,None,2024-10-04 11h38.55.532295 +0530,
30,0,30,0,107.99056199999904,,107.88260040000023,10,107.99056199999904,107.99056199999904,0.07155599999896367,110.49239239999952,[-0.015],[0.085],[1],[0],[0],[2.539105899999413],['target'],619801,001,2024-10-04_11h38.49.327,Session5_VisualSearch,2024.1.5,None,2024-10-04 11h38.55.532295 +0530,
31,0,31,0,110.60689529999945,,110.49963169999683,10,110.60689529999945,110.60689529999945,0.0753766000016185,112.66264109999975,[-0.12666666666666668],[-0.065],[1],[0],[0],[2.08810910000102],['target'],619801,001,2024-10-04_11h38.49.327,Session5_VisualSearch,2024.1.5,None,2024-10-04 11h38.55.532295 +0530,
32,0,32,0,112.79160090000005,,112.67824649999966,5,112.79160090000005,112.79160090000005,0.07134130000122241,119.82786339999802,[-0.2866666666666667],[0.43833333333333335],[1],[0],[0],[7.079857400000037],['target'],619801,001,2024-10-04_11h38.49.327,Session5_VisualSearch,2024.1.5,None,2024-10-04 11h38.55.532295 +0530,
33,0,33,0,120.04096969999955,,119.84525429999849,10,120.04096969999955,120.04096969999955,0.14025459999902523,124.4246510999983,[0.22],[-0.36333333333333334],[1],[0],[0],[4.441937100000359],['target'],619801,001,2024-10-04_11h38.49.327,Session5_VisualSearch,2024.1.5,None,2024-10-04 11h38.55.532295 +0530,
34,0,34,0,124.53859549999834,,124.43188629999713,10,124.53859549999834,124.53859549999834,0.06589750000057393,127.92730649999794,[-0.08],[0.195],[1],[0],[0],[3.4298352999976487],['target'],619801,001,2024-10-04_11h38.49.327,Session5_VisualSearch,2024.1.5,None,2024-10-04 11h38.55.532295 +0530,
35,0,35,0,128.15650329999698,,127.94450489999872,10,128.15650329999698,128.15650329999698,0.1433184000015899,130.60903770000004,[-0.31833333333333336],[0.31166666666666665],[1],[0],[0],[2.523135999999795],['target'],619801,001,2024-10-04_11h38.49.327,Session5_VisualSearch,2024.1.5,None,2024-10-04 11h38.55.532295 +0530,
36,0,36,0,130.82301069999812,,130.62609529999827,10,130.82301069999812,130.82301069999812,0.1414543999999296,132.52500510000027,[-0.345],[0.14833333333333334],[1],[0],[0],[1.7616428999972413],['target'],619801,001,2024-10-04_11h38.49.327,Session5_VisualSearch,2024.1.5,None,2024-10-04 11h38.55.532295 +0530,
37,0,37,0,132.65555010000026,,132.54155139999784,5,132.65555010000026,132.65555010000026,0.07606540000051609,135.4909936999975,[-0.08],[0.17],[1],[0],[0],[2.8781419999977516],['target'],619801,001,2024-10-04_11h38.49.327,Session5_VisualSearch,2024.1.5,None,2024-10-04 11h38.55.532295 +0530,
38,0,38,0,135.63734669999758,,135.50094949999766,10,135.63734669999758,135.63734669999758,0.09254000000146334,138.25823469999887,[-0.28],[-0.455],[1],[0],[0],[2.666267799999332],['target'],619801,001,2024-10-04_11h38.49.327,Session5_VisualSearch,2024.1.5,None,2024-10-04 11h38.55.532295 +0530,
39,0,39,0,138.40486880000026,,138.27751219999845,5,138.40486880000026,138.40486880000026,0.08817350000026636,140.39218049999909,[0.135],[0.085],[1],[0],[0],[2.029937700001028],['target'],619801,001,2024-10-04_11h38.49.327,Session5_VisualSearch,2024.1.5,None,2024-10-04 11h38.55.532295 +0530,
40,0,40,0,140.62013429999934,,140.40922419999697,10,140.62013429999934,140.62013429999934,0.14470799999980954,143.60724279999704,[0.23666666666666666],[-0.4116666666666667],[1],[0],[0],[3.057002500001545],['target'],619801,001,2024-10-04_11h38.49.327,Session5_VisualSearch,2024.1.5,None,2024-10-04 11h38.55.532295 +0530,
41,0,41,0,143.73640859999796,,143.62449229999766,5,143.73640859999796,143.73640859999796,0.0725985999997647,146.10824469999716,[-0.43333333333333335],[-0.4116666666666667],[1],[0],[0],[2.4128658000008727],['target'],619801,001,2024-10-04_11h38.49.327,Session5_VisualSearch,2024.1.5,None,2024-10-04 11h38.55.532295 +0530,
42,0,42,0,146.2518698999993,,146.1260457999997,10,146.2518698999993,146.2518698999993,0.10592330000145012,148.38707839999915,[-0.4],[0.14333333333333334],[1],[0],[0],[2.1587264000008872],['target'],619801,001,2024-10-04_11h38.49.327,Session5_VisualSearch,2024.1.5,None,2024-10-04 11h38.55.532295 +0530,
43,0,43,0,148.4853480999991,,148.39485760000025,10,148.4853480999991,148.4853480999991,0.0652403999993112,150.30456709999999,[0.24333333333333335],[0.23833333333333334],[1],[0],[0],[1.8452606999999261],['target'],619801,001,2024-10-04_11h38.49.327,Session5_VisualSearch,2024.1.5,None,2024-10-04 11h38.55.532295 +0530,
44,0,44,0,150.41824709999855,,150.31174180000016,10,150.41824709999855,150.41824709999855,0.07667289999881177,153.27396389999922,[-0.021666666666666667],[-0.48],[1],[0],[0],[2.88561430000118],['target'],619801,001,2024-10-04_11h38.49.327,Session5_VisualSearch,2024.1.5,None,2024-10-04 11h38.55.532295 +0530,
45,0,45,0,153.50336919999972,,153.29338219999772,10,153.50336919999972,153.50336919999972,0.1499456999990798,155.52282099999866,[0.37333333333333335],[0.25],[1],[0],[0],[2.0823903000018618],['target'],619801,001,2024-10-04_11h38.49.327,Session5_VisualSearch,2024.1.5,None,2024-10-04 11h38.55.532295 +0530,
46,0,46,0,155.63418319999982,,155.53996279999774,5,155.63418319999982,155.63418319999982,0.06753150000076857,157.69004909999785,[0.22833333333333333],[-0.255],[1],[0],[0],[2.084581300001446],['target'],619801,001,2024-10-04_11h38.49.327,Session5_VisualSearch,2024.1.5,None,2024-10-04 11h38.55.532295 +0530,
47,0,47,0,157.9695036999983,,157.7154871999992,10,157.9695036999983,157.9695036999983,0.19586310000158846,161.3716852999969,[-0.425],[0.16166666666666665],[1],[0],[0],[3.4634614999995392],['target'],619801,001,2024-10-04_11h38.49.327,Session5_VisualSearch,2024.1.5,None,2024-10-04 11h38.55.532295 +0530,
48,0,48,0,161.7671085999973,,161.38749309999912,10,161.7671085999973,161.7671085999973,0.33301920000303653,163.304873699999,[-0.35333333333333333],[0.02666666666666667],[1],[0],[0],[1.5877584000008937],['target'],619801,001,2024-10-04_11h38.49.327,Session5_VisualSearch,2024.1.5,None,2024-10-04 11h38.55.532295 +0530,
49,0,49,0,163.4005552999988,,163.32033509999746,5,163.4005552999988,163.4005552999988,0.05654879999929108,166.88932409999688,[0.33],[0.39],[1],[0],[0],[3.5154333999998926],['target'],619801,001,2024-10-04_11h38.49.327,Session5_VisualSearch,2024.1.5,None,2024-10-04 11h38.55.532295 +0530,
50,0,50,0,167.04956909999964,,166.91051829999924,5,167.04956909999964,167.04956909999964,0.10246729999926174,169.27094529999886,[-0.2816666666666667],[0.4583333333333333],[1],[0],[0],[2.2632319000003918],['target'],619801,001,2024-10-04_11h38.49.327,Session5_VisualSearch,2024.1.5,None,2024-10-04 11h38.55.532295 +0530,
51,0,51,0,169.3997797999982,,169.292048299998,10,169.3997797999982,169.3997797999982,0.07968750000145519,171.38705819999814,[-0.09166666666666666],[-0.2816666666666667],[1],[0],[0],[2.0175678999985394],['target'],619801,001,2024-10-04_11h38.49.327,Session5_VisualSearch,2024.1.5,None,2024-10-04 11h38.55.532295 +0530,
52,0,52,0,171.43206689999715,,171.39201129999856,5,171.43206689999715,171.43206689999715,0.028967400001420174,173.11906660000022,[-0.23833333333333334],[0.37333333333333335],[1],[0],[0],[1.6983662999991793],['target'],619801,001,2024-10-04_11h38.49.327,Session5_VisualSearch,2024.1.5,None,2024-10-04 11h38.55.532295 +0530,
53,0,53,0,173.199094399999,,173.12774340000033,5,173.199094399999,173.199094399999,0.04591459999937797,174.7526848999987,[-0.05],[-0.215],[1],[0],[0],[1.5800843000033638],['target'],619801,001,2024-10-04_11h38.49.327,Session5_VisualSearch,2024.1.5,None,2024-10-04 11h38.55.532295 +0530,
54,0,54,0,174.84865549999813,,174.76192089999677,5,174.84865549999813,174.84865549999813,0.05823740000050748,176.13557239999864,[-0.21666666666666667],[-0.12333333333333334],[1],[0],[0],[1.3163141000004543],['target'],619801,001,2024-10-04_11h38.49.327,Session5_VisualSearch,2024.1.5,None,2024-10-04 11h38.55.532295 +0530,
55,0,55,0,176.38322689999768,,176.1507700000002,10,176.38322689999768,176.38322689999768,0.17384690000108094,178.4754146999985,[0.3416666666666667],[-0.021666666666666667],[1],[0],[0],[2.153920400000061],['target'],619801,001,2024-10-04_11h38.49.327,Session5_VisualSearch,2024.1.5,None,2024-10-04 11h38.55.532295 +0530,
56,0,56,0,178.61677950000012,,178.50329189999684,5,178.61677950000012,178.61677950000012,0.07377059999998892,180.2862318999978,[-0.36833333333333335],[0.12666666666666668],[1],[0],[0],[1.7108307999988028],['target'],619801,001,2024-10-04_11h38.49.327,Session5_VisualSearch,2024.1.5,None,2024-10-04 11h38.55.532295 +0530,
57,0,57,0,180.41579359999741,,180.30257459999848,5,180.41579359999741,180.41579359999741,0.07347939999817754,182.1691628999979,[-0.48833333333333334],[0.18],[1],[0],[0],[1.7964176000023144],['target'],619801,001,2024-10-04_11h38.49.327,Session5_VisualSearch,2024.1.5,None,2024-10-04 11h38.55.532295 +0530,
58,0,58,0,182.38199379999787,,182.1852562999993,10,182.38199379999787,182.38199379999787,0.14310450000266428,184.36645209999915,[0.35833333333333334],[0.33],[1],[0],[0],[2.042383500000142],['target'],619801,001,2024-10-04_11h38.49.327,Session5_VisualSearch,2024.1.5,None,2024-10-04 11h38.55.532295 +0530,
59,0,59,0,184.44770679999783,,184.37543599999844,5,184.44770679999783,184.44770679999783,0.049225500002648914,186.81644159999996,[-0.47333333333333333],[0.215],[1],[0],[0],[2.393159999999625],['target'],619801,001,2024-10-04_11h38.49.327,Session5_VisualSearch,2024.1.5,None,2024-10-04 11h38.55.532295 +0530,
60,0,60,0,186.89757019999888,,186.82506419999845,5,186.89757019999888,186.89757019999888,0.04575049999766634,189.4514285999976,[-0.08833333333333333],[-0.445],[1],[0],[0],[2.5812765000009676],['target'],619801,001,2024-10-04_11h38.49.327,Session5_VisualSearch,2024.1.5,None,2024-10-04 11h38.55.532295 +0530,
61,0,61,0,189.61307119999765,,189.47936189999746,10,189.61307119999765,189.61307119999765,0.12028920000011567,193.46661630000017,[-0.19],[0.43],[1],[0],[0],[3.8732994999991206],['target'],619801,001,2024-10-04_11h38.49.327,Session5_VisualSearch,2024.1.5,None,2024-10-04 11h38.55.532295 +0530,
62,0,62,0,193.56406009999773,,193.47760269999708,5,193.56406009999773,193.56406009999773,0.0577817999983381,196.75059630000032,[-0.28833333333333333],[-0.49166666666666664],[1],[0],[0],[3.217244600000413],['target'],619801,001,2024-10-04_11h38.49.327,Session5_VisualSearch,2024.1.5,None,2024-10-04 11h38.55.532295 +0530,
63,0,63,0,196.88062299999729,,196.7680505999997,5,196.88062299999729,196.88062299999729,0.07569450000301003,200.9998280999971,[0.31166666666666665],[-0.005],[1],[0],[0],[4.159569200000988],['target'],619801,001,2024-10-04_11h38.49.327,Session5_VisualSearch,2024.1.5,None,2024-10-04 11h38.55.532295 +0530,
64,0,64,0,201.09507419999863,,201.0168999999987,5,201.09507419999863,201.09507419999863,0.06223400000089896,203.91606089999914,[0.0],[-0.3433333333333333],[1],[0],[0],[2.8414975000014238],['target'],619801,001,2024-10-04_11h38.49.327,Session5_VisualSearch,2024.1.5,None,2024-10-04 11h38.55.532295 +0530,
65,0,65,0,204.12925509999695,,203.934094799999,10,204.12925509999695,204.12925509999695,0.14154319999943255,207.42963319999762,[-0.425],[-0.295],[1],[0],[0],[3.3587810000026366],['target'],619801,001,2024-10-04_11h38.49.327,Session5_VisualSearch,2024.1.5,None,2024-10-04 11h38.55.532295 +0530,
66,0,66,0,207.52752809999947,,207.4365977999987,10,207.52752809999947,207.52752809999947,0.06900660000246717,209.95183769999858,[-0.09],[0.035],[1],[0],[0],[2.446823599999334],['target'],619801,001,2024-10-04_11h38.49.327,Session5_VisualSearch,2024.1.5,None,2024-10-04 11h38.55.532295 +0530,
67,0,67,0,210.1115699999973,,209.96928039999693,10,210.1115699999973,210.1115699999973,0.10948039999857428,214.047739499998,[0.4816666666666667],[0.095],[1],[0],[0],[3.9717763000007835],['target'],619801,001,2024-10-04_11h38.49.327,Session5_VisualSearch,2024.1.5,None,2024-10-04 11h38.55.532295 +0530,
68,0,68,0,214.15992489999917,,214.05514499999845,10,214.15992489999917,214.15992489999917,0.07716140000047744,217.51497629999722,[-0.46],[-0.37333333333333335],[1],[0],[0],[3.3829626999977336],['target'],619801,001,2024-10-04_11h38.49.327,Session5_VisualSearch,2024.1.5,None,2024-10-04 11h38.55.532295 +0530,
69,0,69,0,217.76046359999964,,217.53302350000013,10,217.76046359999964,217.76046359999964,0.15780509999967762,219.61384669999825,[0.18833333333333332],[0.17],[1],[0],[0],[1.9252857999999833],['target'],619801,001,2024-10-04_11h38.49.327,Session5_VisualSearch,2024.1.5,None,2024-10-04 11h38.55.532295 +0530,
70,0,70,0,219.74236029999884,,219.62309329999698,10,219.74236029999884,219.74236029999884,0.09219479999956093,223.86108669999885,[0.4583333333333333],[-0.35833333333333334],[1],[0],[0],[4.147304599999188],['target'],619801,001,2024-10-04_11h38.49.327,Session5_VisualSearch,2024.1.5,None,2024-10-04 11h38.55.532295 +0530,
71,0,71,0,223.92622019999908,,223.8679162999979,5,223.92622019999908,223.92622019999908,0.03823099999863189,225.6993169999987,[0.16833333333333333],[-0.44666666666666666],[1],[0],[0],[1.7933183999994071],['target'],619801,001,2024-10-04_11h38.49.327,Session5_VisualSearch,2024.1.5,None,2024-10-04 11h38.55.532295 +0530,
72,0,72,0,225.87655149999773,,225.71863889999804,10,225.87655149999773,225.87655149999773,0.12095200000112527,235.06340549999732,[-0.495],[-0.4116666666666667],[1],[0],[0],[9.22767880000174],['target'],619801,001,2024-10-04_11h38.49.327,Session5_VisualSearch,2024.1.5,None,2024-10-04 11h38.55.532295 +0530,
73,0,73,0,235.29278239999985,,235.08301519999804,10,235.29278239999985,235.29278239999985,0.14533920000030776,238.44421019999936,[-0.47],[0.345],[1],[0],[0],[3.218832900001871],['target'],619801,001,2024-10-04_11h38.49.327,Session5_VisualSearch,2024.1.5,None,2024-10-04 11h38.55.532295 +0530,
74,0,74,0,238.6246242999987,,238.45530629999848,10,238.6246242999987,238.6246242999987,0.1106008999995538,241.49650259999908,[0.3233333333333333],[-0.205],[1],[0],[0],[2.9316220000000612],['target'],619801,001,2024-10-04_11h38.49.327,Session5_VisualSearch,2024.1.5,None,2024-10-04 11h38.55.532295 +0530,
75,0,75,0,241.5901348999978,,241.5139261000004,5,241.5901348999978,241.5901348999978,0.061954799999512034,243.36155759999747,[0.5016666666666667],[-0.3516666666666667],[1],[0],[0],[1.787344699998357],['target'],619801,001,2024-10-04_11h38.49.327,Session5_VisualSearch,2024.1.5,None,2024-10-04 11h38.55.532295 +0530,
76,0,76,0,243.5911896999969,,243.37773959999686,10,243.5911896999969,243.5911896999969,0.14482689999931608,246.28290109999944,[0.021666666666666667],[0.23],[1],[0],[0],[2.763251100001071],['target'],619801,001,2024-10-04_11h38.49.327,Session5_VisualSearch,2024.1.5,None,2024-10-04 11h38.55.532295 +0530,
77,0,77,0,246.45578989999922,,246.29908189999696,10,246.45578989999922,246.45578989999922,0.11981860000014422,248.65910139999687,[-0.49833333333333335],[0.14666666666666667],[1],[0],[0],[2.2428610999995726],['target'],619801,001,2024-10-04_11h38.49.327,Session5_VisualSearch,2024.1.5,None,2024-10-04 11h38.55.532295 +0530,
78,0,78,0,248.72226359999695,,248.6656996999991,5,248.72226359999695,248.72226359999695,0.03647600000113016,251.06024640000032,[-0.115],[-0.22166666666666668],[1],[0],[0],[2.3581157000007806],['target'],619801,001,2024-10-04_11h38.49.327,Session5_VisualSearch,2024.1.5,None,2024-10-04 11h38.55.532295 +0530,
79,0,79,0,251.27253949999795,,251.07525129999703,10,251.27253949999795,251.27253949999795,0.14482150000185356,252.87862829999722,[-0.021666666666666667],[-0.011666666666666667],[1],[0],[0],[1.6622619000008854],[],619801,001,2024-10-04_11h38.49.327,Session5_VisualSearch,2024.1.5,None,2024-10-04 11h38.55.532295 +0530,
80,0,80,0,253.02391589999752,,252.90071179999723,5,253.02391589999752,253.02391589999752,0.08160630000202218,255.7944740999992,[-0.44],[-0.4116666666666667],[1],[0],[0],[2.818453600000794],['target'],619801,001,2024-10-04_11h38.49.327,Session5_VisualSearch,2024.1.5,None,2024-10-04 11h38.55.532295 +0530,
81,0,81,0,256.0240617999989,,255.81103219999932,10,256.0240617999989,256.0240617999989,0.1516300000002957,260.0747969999975,[-0.041666666666666664],[-0.021666666666666667],[1],[0],[0],[4.114339100000507],['target'],619801,001,2024-10-04_11h38.49.327,Session5_VisualSearch,2024.1.5,None,2024-10-04 11h38.55.532295 +0530,
82,0,82,0,260.15378959999725,,260.0905437000001,5,260.15378959999725,260.15378959999725,0.044492999997601146,263.0243058999986,[-0.295],[0.4716666666666667],[1],[0],[0],[2.890859499999351],['target'],619801,001,2024-10-04_11h38.49.327,Session5_VisualSearch,2024.1.5,None,2024-10-04 11h38.55.532295 +0530,
83,0,83,0,263.12052069999845,,263.0324647999987,10,263.12052069999845,263.12052069999845,0.07193190000180039,265.45554300000003,[-0.21166666666666667],[-0.26166666666666666],[1],[0],[0],[2.352509899999859],['target'],619801,001,2024-10-04_11h38.49.327,Session5_VisualSearch,2024.1.5,None,2024-10-04 11h38.55.532295 +0530,
84,0,84,0,265.5203459000004,,265.4625191999985,5,265.5203459000004,265.5203459000004,0.036687299998448,268.1111985999996,[0.4083333333333333],[0.4583333333333333],[1],[0],[0],[2.6121831000018574],['target'],619801,001,2024-10-04_11h38.49.327,Session5_VisualSearch,2024.1.5,None,2024-10-04 11h38.55.532295 +0530,
85,0,85,0,268.3388223999973,,268.1281421999993,10,268.3388223999973,268.3388223999973,0.14676709999912418,271.70719889999964,[-0.42833333333333334],[-0.4716666666666667],[1],[0],[0],[3.4343678999975964],['target'],619801,001,2024-10-04_11h38.49.327,Session5_VisualSearch,2024.1.5,None,2024-10-04 11h38.55.532295 +0530,
86,0,86,0,271.83611069999824,,271.7257099999988,10,271.83611069999824,271.83611069999824,0.08521060000202851,274.20482379999885,[0.25833333333333336],[0.07833333333333334],[1],[0],[0],[2.3983308999995643],['target'],619801,001,2024-10-04_11h38.49.327,Session5_VisualSearch,2024.1.5,None,2024-10-04 11h38.55.532295 +0530,
87,0,87,0,274.2691221999994,,274.2122591999978,5,274.2691221999994,274.2691221999994,0.0361735000005865,277.0778270999981,[-0.08666666666666667],[0.28833333333333333],[1],[0],[0],[2.8296260999995866],['target'],619801,001,2024-10-04_11h38.49.327,Session5_VisualSearch,2024.1.5,None,2024-10-04 11h38.55.532295 +0530,
88,0,88,0,277.2027190999979,,277.0938142999985,5,277.2027190999979,277.2027190999979,0.07164360000024317,278.5732465999972,[0.028333333333333332],[0.30833333333333335],[1],[0],[0],[1.4099194000009447],['target'],619801,001,2024-10-04_11h38.49.327,Session5_VisualSearch,2024.1.5,None,2024-10-04 11h38.55.532295 +0530,
89,0,89,0,278.70168600000034,,278.5895425999988,10,278.70168600000034,278.70168600000034,0.08519419999720412,280.72288039999694,[-0.055],[0.3333333333333333],[1],[0],[0],[2.0516275000009045],['target'],619801,001,2024-10-04_11h38.49.327,Session5_VisualSearch,2024.1.5,None,2024-10-04 11h38.55.532295 +0530,
90,0,90,0,280.8694495999989,,280.74645469999814,5,280.8694495999989,280.8694495999989,0.07640839999658056,284.7407061999984,[0.4],[0.24166666666666667],[1],[0],[0],[3.9202442999994673],['target'],619801,001,2024-10-04_11h38.49.327,Session5_VisualSearch,2024.1.5,None,2024-10-04 11h38.55.532295 +0530,
91,0,91,0,284.95107110000026,,284.7695458999988,10,284.95107110000026,284.95107110000026,0.14645329999984824,287.1218482000004,[-0.011666666666666667],[-0.45166666666666666],[1],[0],[0],[2.2111517999983334],['target'],619801,001,2024-10-04_11h38.49.327,Session5_VisualSearch,2024.1.5,None,2024-10-04 11h38.55.532295 +0530,
92,0,92,0,287.2522046999984,,287.13832009999896,5,287.2522046999984,287.2522046999984,0.07221370000115712,288.98662489999697,[-0.425],[0.0016666666666666668],[1],[0],[0],[1.7798962000015308],['target'],619801,001,2024-10-04_11h38.49.327,Session5_VisualSearch,2024.1.5,None,2024-10-04 11h38.55.532295 +0530,
93,0,93,0,289.13395909999963,,288.9953655999998,10,289.13395909999963,289.13395909999963,0.0918493999997736,293.2564883999985,[-0.475],[-0.4633333333333333],[1],[0],[0],[4.169677900001261],['target'],619801,001,2024-10-04_11h38.49.327,Session5_VisualSearch,2024.1.5,None,2024-10-04 11h38.55.532295 +0530,
94,0,94,0,293.3852599999991,,293.2732608999977,5,293.3852599999991,293.3852599999991,0.0725815000005241,295.12424850000025,[-0.02],[0.25166666666666665],[1],[0],[0],[1.7800574000029883],['target'],619801,001,2024-10-04_11h38.49.327,Session5_VisualSearch,2024.1.5,None,2024-10-04 11h38.55.532295 +0530,
95,0,95,0,295.2509726999997,,295.14159199999995,5,295.2509726999997,295.2509726999997,0.07325930000297376,297.47143909999795,[-0.22166666666666668],[-0.3016666666666667],[1],[0],[0],[2.258923199999117],['target'],619801,001,2024-10-04_11h38.49.327,Session5_VisualSearch,2024.1.5,None,2024-10-04 11h38.55.532295 +0530,
96,0,96,0,297.60091660000035,,297.4884287999994,5,297.60091660000035,297.60091660000035,0.07235690000015893,299.3537531999973,[-0.38166666666666665],[0.18333333333333332],[1],[0],[0],[1.7954543000014382],['target'],619801,001,2024-10-04_11h38.49.327,Session5_VisualSearch,2024.1.5,None,2024-10-04 11h38.55.532295 +0530,
97,0,97,0,299.4655708999999,,299.36950429999706,5,299.4655708999999,299.4655708999999,0.07297640000251704,301.7530921999969,[-0.265],[-0.4],[1],[0],[0],[2.3141154999975697],['target'],619801,001,2024-10-04_11h38.49.327,Session5_VisualSearch,2024.1.5,None,2024-10-04 11h38.55.532295 +0530,
98,0,98,0,301.9154735999982,,301.7710874999975,10,301.9154735999982,301.9154735999982,0.11378469999908702,303.9027563999989,[0.10666666666666667],[-0.315],[1],[0],[0],[2.021615699999529],['target'],619801,001,2024-10-04_11h38.49.327,Session5_VisualSearch,2024.1.5,None,2024-10-04 11h38.55.532295 +0530,
99,0,99,0,304.1339810999998,,303.92118219999975,10,304.1339810999998,304.1339810999998,0.1591139000011026,305.8999671999991,[-0.08833333333333333],[0.31],[1],[0],[0],[1.8251229000015883],['target'],619801,001,2024-10-04_11h38.49.327,Session5_VisualSearch,2024.1.5,None,2024-10-04 11h38.55.532295 +0530,
100,0,100,0,306.015129899999,,305.9050310999992,10,306.015129899999,306.015129899999,0.07044889999815496,309.4203213999972,[0.345],[0.4083333333333333],[1],[0],[0],[3.444738399997732],['target'],619801,001,2024-10-04_11h38.49.327,Session5_VisualSearch,2024.1.5,None,2024-10-04 11h38.55.532295 +0530,
101,0,101,0,309.5476299999973,,309.43622479999976,10,309.5476299999973,309.5476299999973,0.0936284000017622,313.6029757999968,[0.4116666666666667],[-0.3416666666666667],[1],[0],[0],[4.076776300000347],['target'],619801,001,2024-10-04_11h38.49.327,Session5_VisualSearch,2024.1.5,None,2024-10-04 11h38.55.532295 +0530,
102,0,102,0,313.7138156000001,,313.61975939999684,5,313.7138156000001,313.7138156000001,0.07336080000095535,316.6029342999973,[-0.445],[0.39166666666666666],[1],[0],[0],[2.9116235000001325],['target'],619801,001,2024-10-04_11h38.49.327,Session5_VisualSearch,2024.1.5,None,2024-10-04 11h38.55.532295 +0530,
103,0,103,0,316.7321247,,316.61852459999864,5,316.7321247,316.7321247,0.07158960000015213,318.20209559999785,[0.22333333333333333],[0.08166666666666667],[1],[0],[0],[1.513667199997144],['target'],619801,001,2024-10-04_11h38.49.327,Session5_VisualSearch,2024.1.5,None,2024-10-04 11h38.55.532295 +0530,
104,0,104,0,318.43127449999884,,318.2207239999989,10,318.43127449999884,318.43127449999884,0.14226549999875715,320.4175899999973,[-0.051666666666666666],[-0.035],[1],[0],[0],[2.0567344000010053],['target'],619801,001,2024-10-04_11h38.49.327,Session5_VisualSearch,2024.1.5,None,2024-10-04 11h38.55.532295 +0530,
105,0,105,0,320.5480458999991,,320.4344246999972,5,320.5480458999991,320.5480458999991,0.07509849999769358,322.1684843000003,[0.08333333333333333],[-0.058333333333333334],[1],[0],[0],[1.6630560999983572],['target'],619801,001,2024-10-04_11h38.49.327,Session5_VisualSearch,2024.1.5,None,2024-10-04 11h38.55.532295 +0530,
106,0,106,0,322.29716689999987,,322.1849853999993,5,322.29716689999987,322.29716689999987,0.07308589999956894,325.45049909999943,[0.31166666666666665],[0.4533333333333333],[1],[0],[0],[3.1956777999985206],['target'],619801,001,2024-10-04_11h38.49.327,Session5_VisualSearch,2024.1.5,None,2024-10-04 11h38.55.532295 +0530,
107,0,107,0,325.59566639999684,,325.4665015999999,10,325.59566639999684,325.59566639999684,0.10220199999821489,328.164090899998,[0.245],[-0.4116666666666667],[1],[0],[0],[2.6000370000001567],['target'],619801,001,2024-10-04_11h38.49.327,Session5_VisualSearch,2024.1.5,None,2024-10-04 11h38.55.532295 +0530,
108,0,108,0,328.27906879999864,,328.1709671999997,10,328.27906879999864,328.27906879999864,0.07000139999945532,330.4317334999978,[0.49166666666666664],[0.43833333333333335],[1],[0],[0],[2.191628900000069],['target'],619801,001,2024-10-04_11h38.49.327,Session5_VisualSearch,2024.1.5,None,2024-10-04 11h38.55.532295 +0530,
109,0,109,0,330.52862489999825,,330.4391563999998,10,330.52862489999825,330.52862489999825,0.06675500000346801,332.73476129999835,[0.17166666666666666],[0.31833333333333336],[1],[0],[0],[2.22892999999749],['target'],619801,001,2024-10-04_11h38.49.327,Session5_VisualSearch,2024.1.5,None,2024-10-04 11h38.55.532295 +0530,
110,0,110,0,332.8640548999974,,332.7509728999976,5,332.8640548999974,332.8640548999974,0.07349860000249464,335.1032180999973,[-0.04],[-0.16],[1],[0],[0],[2.2808356000023196],['target'],619801,001,2024-10-04_11h38.49.327,Session5_VisualSearch,2024.1.5,None,2024-10-04 11h38.55.532295 +0530,
111,0,111,0,335.23076299999957,,335.1259723999974,5,335.23076299999957,335.23076299999957,0.0722273999999743,338.7355893999993,[0.04],[0.49166666666666664],[1],[0],[0],[3.5396138000032806],['target'],619801,001,2024-10-04_11h38.49.327,Session5_VisualSearch,2024.1.5,None,2024-10-04 11h38.55.532295 +0530,
112,0,112,0,338.9281181999977,,338.75214810000034,10,338.9281181999977,338.9281181999977,0.1293231999989075,340.3675685999988,[0.48333333333333334],[0.03],[1],[0],[0],[1.4880176000006031],['target'],619801,001,2024-10-04_11h38.49.327,Session5_VisualSearch,2024.1.5,None,2024-10-04 11h38.55.532295 +0530,
113,0,113,0,340.5952827000001,,340.38452499999767,10,340.5952827000001,340.5952827000001,0.1402352000004612,344.47930129999804,[-0.36333333333333334],[-0.4633333333333333],[1],[0],[0],[3.9571707999966748],['target'],619801,001,2024-10-04_11h38.49.327,Session5_VisualSearch,2024.1.5,None,2024-10-04 11h38.55.532295 +0530,
114,0,114,0,344.5930109000001,,344.48811809999825,10,344.5930109000001,344.5930109000001,0.07665199999973993,347.147038799998,[0.22833333333333333],[-0.46166666666666667],[1],[0],[0],[2.583368400002655],['target'],619801,001,2024-10-04_11h38.49.327,Session5_VisualSearch,2024.1.5,None,2024-10-04 11h38.55.532295 +0530,
115,0,115,0,347.2428246999989,,347.1680997000003,5,347.2428246999989,347.2428246999989,0.05333900000186986,348.9817962999987,[-0.15833333333333333],[0.043333333333333335],[1],[0],[0],[1.7636977000001934],['target'],619801,001,2024-10-04_11h38.49.327,Session5_VisualSearch,2024.1.5,None,2024-10-04 11h38.55.532295 +0530,
116,0,116,0,349.1091459999989,,349.0019575999977,5,349.1091459999989,349.1091459999989,0.07722009999997681,351.83297259999745,[0.4866666666666667],[-0.4816666666666667],[1],[0],[0],[2.755898999999772],['target'],619801,001,2024-10-04_11h38.49.327,Session5_VisualSearch,2024.1.5,None,2024-10-04 11h38.55.532295 +0530,
117,0,117,0,351.9604733999986,,351.8489047999974,5,351.9604733999986,351.9604733999986,0.07558200000130455,353.5813070000004,[0.355],[0.03333333333333333],[1],[0],[0],[1.6587269000010565],['target'],619801,001,2024-10-04_11h38.49.327,Session5_VisualSearch,2024.1.5,None,2024-10-04 11h38.55.532295 +0530,
118,0,118,0,353.70861479999803,,353.59878489999755,10,353.70861479999803,353.70861479999803,0.09540840000045137,355.91332639999746,[-0.3383333333333333],[0.03166666666666667],[1],[0],[0],[2.222201900000073],['target'],619801,001,2024-10-04_11h38.49.327,Session5_VisualSearch,2024.1.5,None,2024-10-04 11h38.55.532295 +0530,
119,0,119,0,356.0261043999999,,355.92968180000025,5,356.0261043999999,356.0261043999999,0.07294889999684528,357.9638512999991,[-0.11833333333333333],[-0.09833333333333333],[1],[0],[0],[1.9649626999998873],['target'],619801,001,2024-10-04_11h38.49.327,Session5_VisualSearch,2024.1.5,None,2024-10-04 11h38.55.532295 +0530,
120,0,120,0,358.0750343999971,,357.9787974999999,5,358.0750343999971,358.0750343999971,0.07052709999697981,359.67923099999825,[-0.22],[0.165],[1],[0],[0],[1.6327371999977913],['target'],619801,001,2024-10-04_11h38.49.327,Session5_VisualSearch,2024.1.5,None,2024-10-04 11h38.55.532295 +0530,
121,0,121,0,359.8078543999982,,359.6950580999983,10,359.8078543999982,359.8078543999982,0.0972077000005811,362.8291776999977,[0.09333333333333334],[0.44666666666666666],[1],[0],[0],[3.0405207999974664],['target'],619801,001,2024-10-04_11h38.49.327,Session5_VisualSearch,2024.1.5,None,2024-10-04 11h38.55.532295 +0530,
122,0,122,0,362.94096219999847,,362.84534129999884,5,362.94096219999847,362.94096219999847,0.07459039999957895,365.34791499999847,[-0.4483333333333333],[0.265],[1],[0],[0],[2.432133000002068],['target'],619801,001,2024-10-04_11h38.49.327,Session5_VisualSearch,2024.1.5,None,2024-10-04 11h38.55.532295 +0530,
123,0,123,0,365.47497010000006,,365.3626989999975,5,365.47497010000006,365.47497010000006,0.07179159999941476,368.0111055999987,[-0.32166666666666666],[-0.29833333333333334],[1],[0],[0],[2.5793798999984574],['target'],619801,001,2024-10-04_11h38.49.327,Session5_VisualSearch,2024.1.5,None,2024-10-04 11h38.55.532295 +0530,
124,0,124,0,368.15683929999796,,368.0261219999993,10,368.15683929999796,368.15683929999796,0.10230740000042715,370.9443030000002,[-0.3383333333333333],[0.21166666666666667],[1],[0],[0],[2.8195106999992277],['target'],619801,001,2024-10-04_11h38.49.327,Session5_VisualSearch,2024.1.5,None,2024-10-04 11h38.55.532295 +0530,
125,0,125,0,371.15804339999886,,370.960671599998,10,371.15804339999886,371.15804339999886,0.13996789999873727,374.4417684,[-0.065],[0.23],[1],[0],[0],[3.345494500001223],['target'],619801,001,2024-10-04_11h38.49.327,Session5_VisualSearch,2024.1.5,None,2024-10-04 11h38.55.532295 +0530,
126,0,126,0,374.50638830000025,,374.44861669999955,5,374.50638830000025,374.50638830000025,0.037483500000234926,376.5606553999969,[0.3433333333333333],[0.235],[1],[0],[0],[2.0754162999983237],['target'],619801,001,2024-10-04_11h38.49.327,Session5_VisualSearch,2024.1.5,None,2024-10-04 11h38.55.532295 +0530,
127,0,127,0,376.67286779999995,,376.5680265999981,10,376.67286779999995,376.67286779999995,0.07042549999823677,380.6265284999972,[0.4116666666666667],[-0.395],[1],[0],[0],[3.9884314999981143],['target'],619801,001,2024-10-04_11h38.49.327,Session5_VisualSearch,2024.1.5,None,2024-10-04 11h38.55.532295 +0530,
128,0,128,0,380.7567553999979,,380.6448391999984,5,380.7567553999979,380.7567553999979,0.0738610999978846,382.99360709999746,[-0.07166666666666667],[0.3983333333333333],[1],[0],[0],[2.2792506000005233],['target'],619801,001,2024-10-04_11h38.49.327,Session5_VisualSearch,2024.1.5,None,2024-10-04 11h38.55.532295 +0530,
129,0,129,0,383.12352699999974,,383.0108334999968,5,383.12352699999974,383.12352699999974,0.07240440000168746,384.742472599999,[0.4716666666666667],[-0.24833333333333332],[1],[0],[0],[1.6638143999989552],['target'],619801,001,2024-10-04_11h38.49.327,Session5_VisualSearch,2024.1.5,None,2024-10-04 11h38.55.532295 +0530,
130,0,130,0,384.9724258999995,,384.7574050000003,10,384.9724258999995,384.9724258999995,0.1393381000016234,388.3567015999979,[0.155],[-0.4683333333333333],[1],[0],[0],[3.4638100000011036],['target'],619801,001,2024-10-04_11h38.49.327,Session5_VisualSearch,2024.1.5,None,2024-10-04 11h38.55.532295 +0530,
131,0,131,0,388.47106429999985,,388.36386819999825,10,388.47106429999985,388.47106429999985,0.06986840000172378,391.17829619999975,[0.20833333333333334],[0.021666666666666667],[1],[0],[0],[2.7447049000002153],['target'],619801,001,2024-10-04_11h38.49.327,Session5_VisualSearch,2024.1.5,None,2024-10-04 11h38.55.532295 +0530,
132,0,132,0,391.32191669999884,,391.19500589999734,10,391.32191669999884,391.32191669999884,0.10311970000111614,396.80896829999983,[-0.23833333333333334],[0.4033333333333333],[1],[0],[0],[5.513514500002202],['target'],619801,001,2024-10-04_11h38.49.327,Session5_VisualSearch,2024.1.5,None,2024-10-04 11h38.55.532295 +0530,
133,0,133,0,397.0217046999969,,396.82658900000024,10,397.0217046999969,397.0217046999969,0.13970329999938258,401.82225610000023,[-0.375],[-0.23666666666666666],[1],[0],[0],[4.858324600001652],['target'],619801,001,2024-10-04_11h38.49.327,Session5_VisualSearch,2024.1.5,None,2024-10-04 11h38.55.532295 +0530,
134,0,134,0,401.88572959999874,,401.8298203999984,5,401.88572959999874,401.88572959999874,0.03956000000107451,404.2573321999989,[-0.155],[0.1],[1],[0],[0],[2.387828700000682],['target'],619801,001,2024-10-04_11h38.49.327,Session5_VisualSearch,2024.1.5,None,2024-10-04 11h38.55.532295 +0530,
135,0,135,0,404.36872629999925,,404.2751443999987,5,404.36872629999925,404.36872629999925,0.07128120000197669,406.5876537999975,[0.26166666666666666],[-0.30333333333333334],[1],[0],[0],[2.24520240000129],['target'],619801,001,2024-10-04_11h38.49.327,Session5_VisualSearch,2024.1.5,None,2024-10-04 11h38.55.532295 +0530,
136,0,136,0,406.66908639999747,,406.595322899997,5,406.66908639999747,406.66908639999747,0.04337610000220593,408.27069779999874,[0.03166666666666667],[-0.035],[1],[0],[0],[1.633236699999543],['target'],619801,001,2024-10-04_11h38.49.327,Session5_VisualSearch,2024.1.5,None,2024-10-04 11h38.55.532295 +0530,
137,0,137,0,408.35182669999995,,408.27867179999885,5,408.35182669999995,408.35182669999995,0.0419398000012734,410.1729877999969,[-0.24833333333333332],[0.04833333333333333],[1],[0],[0],[1.8530030000001716],['target'],619801,001,2024-10-04_11h38.49.327,Session5_VisualSearch,2024.1.5,None,2024-10-04 11h38.55.532295 +0530,
138,0,138,0,410.3034341999992,,410.1897656000001,5,410.3034341999992,410.3034341999992,0.07165820000227541,413.0057240999995,[-0.4816666666666667],[-0.4483333333333333],[1],[0],[0],[2.747680799999216],['target'],619801,001,2024-10-04_11h38.49.327,Session5_VisualSearch,2024.1.5,None,2024-10-04 11h38.55.532295 +0530,
139,0,139,0,413.2198146999981,,413.0223033999973,10,413.2198146999981,413.2198146999981,0.14057799999864073,416.5526643999983,[0.4816666666666667],[-0.4683333333333333],[1],[0],[0],[3.394528299999365],['target'],619801,001,2024-10-04_11h38.49.327,Session5_VisualSearch,2024.1.5,None,2024-10-04 11h38.55.532295 +0530,
140,0,140,0,416.6172609999994,,416.5594878999982,5,416.6172609999994,416.6172609999994,0.03536610000082874,419.670651299999,[0.20333333333333334],[0.275],[1],[0],[0],[3.0765294000011636],['target'],619801,001,2024-10-04_11h38.49.327,Session5_VisualSearch,2024.1.5,None,2024-10-04 11h38.55.532295 +0530,
141,0,141,0,419.750946199998,,419.6794282999981,5,419.750946199998,419.750946199998,0.04608690000168281,422.0711905999997,[0.36833333333333335],[0.355],[1],[0],[0],[2.3464320999992196],['target'],619801,001,2024-10-04_11h38.49.327,Session5_VisualSearch,2024.1.5,None,2024-10-04 11h38.55.532295 +0530,
142,0,142,0,422.28476039999805,,422.0868069999997,10,422.28476039999805,422.28476039999805,0.14166889999978594,424.7853843999983,[-0.495],[0.08333333333333333],[1],[0],[0],[2.561567800003104],['target'],619801,001,2024-10-04_11h38.49.327,Session5_VisualSearch,2024.1.5,None,2024-10-04 11h38.55.532295 +0530,
143,0,143,0,424.9165390999988,,424.7982602999982,10,424.9165390999988,424.9165390999988,0.07789540000158013,427.752079599999,[0.345],[0.12333333333333334],[1],[0],[0],[2.878149799998937],['target'],619801,001,2024-10-04_11h38.49.327,Session5_VisualSearch,2024.1.5,None,2024-10-04 11h38.55.532295 +0530,
144,0,144,0,427.81580869999743,,427.76023299999724,5,427.81580869999743,427.81580869999743,0.036072999999305466,429.57102499999746,[0.17833333333333334],[-0.4116666666666667],[1],[0],[0],[1.7753507000015816],['target'],619801,001,2024-10-04_11h38.49.327,Session5_VisualSearch,2024.1.5,None,2024-10-04 11h38.55.532295 +0530,
145,0,145,0,429.71565009999904,,429.5890263000001,10,429.71565009999904,429.71565009999904,0.10122969999792986,433.3706185999981,[0.12333333333333334],[-0.055],[1],[0],[0],[3.682318999999552],['target'],619801,001,2024-10-04_11h38.49.327,Session5_VisualSearch,2024.1.5,None,2024-10-04 11h38.55.532295 +0530,
146,0,146,0,433.5020655999979,,433.387159599999,5,433.5020655999979,433.5020655999979,0.07592949999889242,435.55509410000013,[-0.075],[-0.105],[1],[0],[0],[2.0960664999984147],['target'],619801,001,2024-10-04_11h38.49.327,Session5_VisualSearch,2024.1.5,None,2024-10-04 11h38.55.532295 +0530,
147,0,147,0,435.7649788999988,,435.57356139999683,10,435.7649788999988,435.7649788999988,0.13985439999669325,440.2831520999971,[0.16166666666666665],[0.4533333333333333],[1],[0],[0],[4.573798199999146],['target'],619801,001,2024-10-04_11h38.49.327,Session5_VisualSearch,2024.1.5,None,2024-10-04 11h38.55.532295 +0530,
148,0,148,0,440.38106569999945,,440.2902718999976,10,440.38106569999945,440.38106569999945,0.0700020999975095,443.16733589999785,[-0.33666666666666667],[0.4116666666666667],[1],[0],[0],[2.807747200000449],['target'],619801,001,2024-10-04_11h38.49.327,Session5_VisualSearch,2024.1.5,None,2024-10-04 11h38.55.532295 +0530,
149,0,149,0,443.2807044000001,,443.1741930999997,10,443.2807044000001,443.2807044000001,0.0691980000010517,446.33267879999767,[0.3883333333333333],[-0.3333333333333333],[1],[0],[0],[3.0900723000013386],['target'],619801,001,2024-10-04_11h38.49.327,Session5_VisualSearch,2024.1.5,None,2024-10-04 11h38.55.532295 +0530,
150,0,150,0,446.43061269999816,,446.3401490999968,10,446.43061269999816,446.43061269999816,0.05886649999956717,448.66976799999975,[-0.12333333333333334],[-0.03],[1],[0],[0],[2.271150900000066],['target'],619801,001,2024-10-04_11h38.49.327,Session5_VisualSearch,2024.1.5,None,2024-10-04 11h38.55.532295 +0530,
151,0,151,0,448.84698379999827,,448.68817689999923,10,448.84698379999827,448.84698379999827,0.13298649999705958,451.43452129999787,[-0.235],[-0.41833333333333333],[1],[0],[0],[2.6147803000021668],['target'],619801,001,2024-10-04_11h38.49.327,Session5_VisualSearch,2024.1.5,None,2024-10-04 11h38.55.532295 +0530,
152,0,152,0,451.5629093999996,,451.45082550000006,10,451.5629093999996,451.5629093999996,0.08827390000078594,455.08151949999956,[-0.415],[-0.34833333333333333],[1],[0],[0],[3.5475761000016064],['target'],619801,001,2024-10-04_11h38.49.327,Session5_VisualSearch,2024.1.5,None,2024-10-04 11h38.55.532295 +0530,
153,0,153,0,455.1790962999985,,455.088638899997,10,455.1790962999985,455.1790962999985,0.06305710000015097,458.1508689000002,[0.35833333333333334],[0.30833333333333335],[1],[0],[0],[2.999600699997245],['target'],619801,001,2024-10-04_11h38.49.327,Session5_VisualSearch,2024.1.5,None,2024-10-04 11h38.55.532295 +0530,
154,0,154,0,458.2459869999984,,458.1688007999983,5,458.2459869999984,458.2459869999984,0.06277549999867915,461.05172969999694,[-0.03],[-0.018333333333333333],[1],[0],[0],[2.8220222999989346],['target'],619801,001,2024-10-04_11h38.49.327,Session5_VisualSearch,2024.1.5,None,2024-10-04 11h38.55.532295 +0530,
155,0,155,0,461.1949867999974,,461.071805399999,10,461.1949867999974,461.1949867999974,0.10486470000250847,463.5647315999995,[0.11166666666666666],[-0.46],[1],[0],[0],[2.3913520999994944],['target'],619801,001,2024-10-04_11h38.49.327,Session5_VisualSearch,2024.1.5,None,2024-10-04 11h38.55.532295 +0530,
156,0,156,0,463.6796171999995,,463.57606289999967,5,463.6796171999995,463.6796171999995,0.06104160000177217,468.01776659999814,[0.49333333333333335],[0.36833333333333335],[1],[0],[0],[4.381769100000383],['target'],619801,001,2024-10-04_11h38.49.327,Session5_VisualSearch,2024.1.5,None,2024-10-04 11h38.55.532295 +0530,
157,0,157,0,468.1455307999968,,468.03536729999905,5,468.1455307999968,468.1455307999968,0.07483090000096126,470.54792619999716,[-0.115],[0.085],[1],[0],[0],[2.439947300001222],['target'],619801,001,2024-10-04_11h38.49.327,Session5_VisualSearch,2024.1.5,None,2024-10-04 11h38.55.532295 +0530,
158,0,158,0,470.6609514999982,,470.5611242999985,5,470.6609514999982,470.6609514999982,0.06185819999882369,472.5970153999988,[-0.20666666666666667],[0.285],[1],[0],[0],[1.9774293000009493],['target'],619801,001,2024-10-04_11h38.49.327,Session5_VisualSearch,2024.1.5,None,2024-10-04 11h38.55.532295 +0530,
159,0,159,0,472.66005439999935,,472.60387419999824,5,472.66005439999935,472.66005439999935,0.03666640000301413,474.4624438999999,[0.29],[0.24666666666666667],[1],[0],[0],[1.8226603999974031],['target'],619801,001,2024-10-04_11h38.49.327,Session5_VisualSearch,2024.1.5,None,2024-10-04 11h38.55.532295 +0530,
160,0,160,0,474.6103732999982,,474.47090099999696,10,474.6103732999982,474.6103732999982,0.09072379999997793,476.3952494999976,[0.265],[-0.08666666666666667],[1],[0],[0],[1.8348058999981731],['target'],619801,001,2024-10-04_11h38.49.327,Session5_VisualSearch,2024.1.5,None,2024-10-04 11h38.55.532295 +0530,
161,0,161,0,476.4927981999972,,476.4021106,10,476.4927981999972,476.4927981999972,0.06829490000018268,480.48137359999964,[0.315],[0.4],[1],[0],[0],[4.0112326000016765],['target'],619801,001,2024-10-04_11h38.49.327,Session5_VisualSearch,2024.1.5,None,2024-10-04 11h38.55.532295 +0530,
162,0,162,0,480.7112406999986,,480.4977904999978,10,480.7112406999986,480.7112406999986,0.14391849999810802,482.3641977999978,[-0.09],[0.055],[1],[0],[0],[1.7267233000020497],['target'],619801,001,2024-10-04_11h38.49.327,Session5_VisualSearch,2024.1.5,None,2024-10-04 11h38.55.532295 +0530,
163,0,163,0,482.4755665999983,,482.38128179999694,5,482.4755665999983,482.4755665999983,0.07078729999921052,485.9812434999985,[-0.30333333333333334],[-0.045],[1],[0],[0],[3.533222599999135],['target'],619801,001,2024-10-04_11h38.49.327,Session5_VisualSearch,2024.1.5,None,2024-10-04 11h38.55.532295 +0530,
164,0,164,0,486.1758626999981,,485.99744499999724,10,486.1758626999981,486.1758626999981,0.12261660000149277,488.4129213999986,[0.025],[0.13833333333333334],[1],[0],[0],[2.297175799998513],['target'],619801,001,2024-10-04_11h38.49.327,Session5_VisualSearch,2024.1.5,None,2024-10-04 11h38.55.532295 +0530,
165,0,165,0,488.5436187999985,,488.43111750000025,5,488.5436187999985,488.5436187999985,0.0730903000003309,490.4977749999998,[0.215],[-0.09166666666666666],[1],[0],[0],[1.9955786999998963],['target'],619801,001,2024-10-04_11h38.49.327,Session5_VisualSearch,2024.1.5,None,2024-10-04 11h38.55.532295 +0530,
166,0,166,0,490.7098730999969,,490.51328779999676,10,490.7098730999969,490.7098730999969,0.13660480000180542,492.22736149999764,[0.19666666666666666],[-0.07166666666666667],[1],[0],[0],[1.5795887000022049],['target'],619801,001,2024-10-04_11h38.49.327,Session5_VisualSearch,2024.1.5,None,2024-10-04 11h38.55.532295 +0530,
167,0,167,0,492.3073239999976,,492.2370876999994,5,492.3073239999976,492.3073239999976,0.04971129999830737,494.5261907999993,[-0.315],[0.44166666666666665],[1],[0],[0],[2.240783700002794],['target'],619801,001,2024-10-04_11h38.49.327,Session5_VisualSearch,2024.1.5,None,2024-10-04 11h38.55.532295 +0530,
168,0,168,0,494.62421840000025,,494.5333309999987,10,494.62421840000025,494.62421840000025,0.05960449999838602,496.15903590000016,[-0.205],[0.065],[1],[0],[0],[1.567035299998679],['target'],619801,001,2024-10-04_11h38.49.327,Session5_VisualSearch,2024.1.5,None,2024-10-04 11h38.55.532295 +0530,
169,0,169,0,496.2244847999973,,496.1661740999989,5,496.2244847999973,496.2244847999973,0.03819310000108089,497.82955169999695,[-0.2633333333333333],[0.07166666666666667],[1],[0],[0],[1.6256398000004992],['target'],619801,001,2024-10-04_11h38.49.327,Session5_VisualSearch,2024.1.5,None,2024-10-04 11h38.55.532295 +0530,
170,0,170,0,497.9234464000001,,497.8452338999996,5,497.9234464000001,497.9234464000001,0.058993200000259094,499.4940483999999,[0.09166666666666666],[0.09],[1],[0],[0],[1.592267100000754],['target'],619801,001,2024-10-04_11h38.49.327,Session5_VisualSearch,2024.1.5,None,2024-10-04 11h38.55.532295 +0530,
171,0,171,0,499.70865609999964,,499.50398949999726,10,499.70865609999964,499.70865609999964,0.13881929999843123,501.89153559999977,[-0.395],[0.295],[1],[0],[0],[2.2502405000013823],['target'],619801,001,2024-10-04_11h38.49.327,Session5_VisualSearch,2024.1.5,None,2024-10-04 11h38.55.532295 +0530,
172,0,172,0,502.0072521000002,,501.8989144999978,10,502.0072521000002,502.0072521000002,0.07139960000131396,504.5254475999973,[0.06833333333333333],[-0.18333333333333332],[1],[0],[0],[2.5559784000033687],['target'],619801,001,2024-10-04_11h38.49.327,Session5_VisualSearch,2024.1.5,None,2024-10-04 11h38.55.532295 +0530,
173,0,173,0,504.62294929999916,,504.5336780999969,10,504.62294929999916,504.62294929999916,0.06971929999781423,506.82860119999896,[0.09833333333333333],[0.31333333333333335],[1],[0],[0],[2.2261195999999472],['target'],619801,001,2024-10-04_11h38.49.327,Session5_VisualSearch,2024.1.5,None,2024-10-04 11h38.55.532295 +0530,
174,0,174,0,506.8891302999982,,506.8360350999974,5,506.8891302999982,506.8891302999982,0.03794639999978244,510.7422329999972,[-0.445],[0.105],[1],[0],[0],[3.8689664999983506],['target'],619801,001,2024-10-04_11h38.49.327,Session5_VisualSearch,2024.1.5,None,2024-10-04 11h38.55.532295 +0530,
175,0,175,0,510.8238219999985,,510.75080089999756,5,510.8238219999985,510.8238219999985,0.04227549999995972,515.025040499997,[0.3983333333333333],[-0.29833333333333334],[1],[0],[0],[4.2327958999994735],['target'],619801,001,2024-10-04_11h38.49.327,Session5_VisualSearch,2024.1.5,None,2024-10-04 11h38.55.532295 +0530,
176,0,176,0,515.1215708999989,,515.0369451999977,5,515.1215708999989,515.1215708999989,0.05246949999855133,517.8615923999969,[-0.3016666666666667],[-0.38666666666666666],[1],[0],[0],[2.773956000000908],['target'],619801,001,2024-10-04_11h38.49.327,Session5_VisualSearch,2024.1.5,None,2024-10-04 11h38.55.532295 +0530,
177,0,177,0,517.9902251999993,,517.8806879999975,5,517.9902251999993,517.9902251999993,0.07245830000101705,520.0758940999985,[-0.095],[-0.44],[1],[0],[0],[2.125291799999104],['target'],619801,001,2024-10-04_11h38.49.327,Session5_VisualSearch,2024.1.5,None,2024-10-04 11h38.55.532295 +0530,
178,0,178,0,520.2891402999994,,520.0940212999994,10,520.2891402999994,520.2891402999994,0.13974840000082622,523.8893566999977,[0.2683333333333333],[-0.36],[1],[0],[0],[3.6582672000004095],['target'],619801,001,2024-10-04_11h38.49.327,Session5_VisualSearch,2024.1.5,None,2024-10-04 11h38.55.532295 +0530,
179,0,179,0,523.9701365999972,,523.8985685999978,5,523.9701365999972,523.9701365999972,0.04691559999992023,525.9900526999991,[-0.465],[-0.41],[1],[0],[0],[2.0458150999984355],['target'],619801,001,2024-10-04_11h38.49.327,Session5_VisualSearch,2024.1.5,None,2024-10-04 11h38.55.532295 +0530,
180,0,180,0,526.0866616999992,,525.9965507999987,10,526.0866616999992,526.0866616999992,0.05991800000265357,528.1928799999987,[0.15833333333333333],[0.435],[1],[0],[0],[2.1367871000002197],['target'],619801,001,2024-10-04_11h38.49.327,Session5_VisualSearch,2024.1.5,None,2024-10-04 11h38.55.532295 +0530,
181,0,181,0,528.3363949999984,,528.2153806999995,10,528.3363949999984,528.3363949999984,0.09080229999744915,531.5090455999998,[-0.035],[-0.42333333333333334],[1],[0],[0],[3.2051103000012517],['target'],619801,001,2024-10-04_11h38.49.327,Session5_VisualSearch,2024.1.5,None,2024-10-04 11h38.55.532295 +0530,
182,0,182,0,531.6380801999985,,531.5250880999993,5,531.6380801999985,531.6380801999985,0.07170289999703527,534.473688099999,[-0.13833333333333334],[0.43833333333333335],[1],[0],[0],[2.8788591000011365],['target'],619801,001,2024-10-04_11h38.49.327,Session5_VisualSearch,2024.1.5,None,2024-10-04 11h38.55.532295 +0530,
183,0,183,0,534.5854069999987,,534.4886147999969,5,534.5854069999987,534.5854069999987,0.07147559999793884,541.8392017999977,[0.21833333333333332],[-0.018333333333333333],[1],[0],[0],[7.282398400002421],['target'],619801,001,2024-10-04_11h38.49.327,Session5_VisualSearch,2024.1.5,None,2024-10-04 11h38.55.532295 +0530,
184,0,184,0,541.984662699997,,541.8515732999986,10,541.984662699997,541.984662699997,0.11294339999949443,544.0062430999969,[-0.25333333333333335],[0.28833333333333333],[1],[0],[0],[2.0436395999968227],['target'],619801,001,2024-10-04_11h38.49.327,Session5_VisualSearch,2024.1.5,None,2024-10-04 11h38.55.532295 +0530,
185,0,185,0,544.1846491999968,,544.0219846,10,544.1846491999968,544.1846491999968,0.1372625000003609,546.2563136999997,[0.4],[0.39],[1],[0],[0],[2.10013269999763],['target'],619801,001,2024-10-04_11h38.49.327,Session5_VisualSearch,2024.1.5,None,2024-10-04 11h38.55.532295 +0530,
186,0,186,0,546.4693066999971,,546.271741499997,10,546.4693066999971,546.4693066999971,0.13806010000189417,551.4562031999994,[-0.015],[0.495],[1],[0],[0],[5.050010400002066],['target'],619801,001,2024-10-04_11h38.49.327,Session5_VisualSearch,2024.1.5,None,2024-10-04 11h38.55.532295 +0530,
187,0,187,0,551.5847687999994,,551.4721625999991,5,551.5847687999994,551.5847687999994,0.07024749999982305,553.9610619999985,[-0.26166666666666666],[-0.385],[1],[0],[0],[2.419899299999088],['target'],619801,001,2024-10-04_11h38.49.327,Session5_VisualSearch,2024.1.5,None,2024-10-04 11h38.55.532295 +0530,
188,0,188,0,554.0845802999975,,553.9800345999975,5,554.0845802999975,554.0845802999975,0.0721402000017406,556.1686051999968,[0.09833333333333333],[-0.06166666666666667],[1],[0],[0],[2.1187421000031463],['target'],619801,001,2024-10-04_11h38.49.327,Session5_VisualSearch,2024.1.5,None,2024-10-04 11h38.55.532295 +0530,
189,0,189,0,556.2665766999999,,556.1774992999999,10,556.2665766999999,556.2665766999999,0.07315259999813861,559.2713840999968,[-0.23333333333333334],[0.19833333333333333],[1],[0],[0],[3.021475700003066],['target'],619801,001,2024-10-04_11h38.49.327,Session5_VisualSearch,2024.1.5,None,2024-10-04 11h38.55.532295 +0530,
190,0,190,0,559.3825060999989,,559.2867568000001,5,559.3825060999989,559.3825060999989,0.07251800000085495,561.2378697999993,[-0.49166666666666664],[-0.175],[1],[0],[0],[1.8816817000006267],['target'],619801,001,2024-10-04_11h38.49.327,Session5_VisualSearch,2024.1.5,None,2024-10-04 11h38.55.532295 +0530,
191,0,191,0,561.3674103999983,,561.2542350000003,5,561.3674103999983,561.3674103999983,0.07353099999818369,563.5064884999993,[-0.18166666666666667],[0.36833333333333335],[1],[0],[0],[2.1824900999999954],['target'],619801,001,2024-10-04_11h38.49.327,Session5_VisualSearch,2024.1.5,None,2024-10-04 11h38.55.532295 +0530,
192,0,192,0,563.6820308999995,,563.5280547000002,10,563.6820308999995,563.6820308999995,0.11423970000032568,565.6222672999975,[-0.13166666666666665],[0.185],[1],[0],[0],[1.9853600000024016],['target'],619801,001,2024-10-04_11h38.49.327,Session5_VisualSearch,2024.1.5,None,2024-10-04 11h38.55.532295 +0530,
193,0,193,0,565.7500728999985,,565.6394241999988,5,565.7500728999985,565.7500728999985,0.074206299999787,568.6864855999993,[0.02666666666666667],[0.355],[1],[0],[0],[2.975353300000279],['target'],619801,001,2024-10-04_11h38.49.327,Session5_VisualSearch,2024.1.5,None,2024-10-04 11h38.55.532295 +0530,
194,0,194,0,568.8161378999976,,568.7032190999998,5,568.8161378999976,568.8161378999976,0.07592300000032992,573.1846030999986,[0.3983333333333333],[0.08666666666666667],[1],[0],[0],[4.40931400000045],['target'],619801,001,2024-10-04_11h38.49.327,Session5_VisualSearch,2024.1.5,None,2024-10-04 11h38.55.532295 +0530,
195,0,195,0,573.3151820999992,,573.2030937999989,5,573.3151820999992,573.3151820999992,0.07379620000210707,575.6513715000001,[-0.225],[-0.3416666666666667],[1],[0],[0],[2.377489600003173],['target'],619801,001,2024-10-04_11h38.49.327,Session5_VisualSearch,2024.1.5,None,2024-10-04 11h38.55.532295 +0530,
196,0,196,0,575.864870399997,,575.6695065999993,10,575.864870399997,575.864870399997,0.14191899999786983,578.7691357000003,[0.48833333333333334],[0.21666666666666667],[1],[0],[0],[2.959006600001885],['target'],619801,001,2024-10-04_11h38.49.327,Session5_VisualSearch,2024.1.5,None,2024-10-04 11h38.55.532295 +0530,
197,0,197,0,578.8631279999972,,578.7869684999969,5,578.8631279999972,578.8631279999972,0.06373040000107721,580.7868265999969,[-0.013333333333333334],[-0.4633333333333333],[1],[0],[0],[1.938689599999634],['target'],619801,001,2024-10-04_11h38.49.327,Session5_VisualSearch,2024.1.5,None,2024-10-04 11h38.55.532295 +0530,
198,0,198,0,580.8959977999984,,580.8042655999998,5,580.8959977999984,580.8959977999984,0.06815809999898192,582.5174268999981,[0.25833333333333336],[-0.018333333333333333],[1],[0],[0],[1.6478736999997636],['target'],619801,001,2024-10-04_11h38.49.327,Session5_VisualSearch,2024.1.5,None,2024-10-04 11h38.55.532295 +0530,
199,0,199,0,582.629173399997,,582.5340309999992,5,582.629173399997,582.629173399997,0.07113969999772962,584.0028839999977,[0.125],[-0.045],[1],[0],[0],[1.4020707000017865],['target'],619801,001,2024-10-04_11h38.49.327,Session5_VisualSearch,2024.1.5,None,2024-10-04 11h38.55.532295 +0530,
