trials.thisRepN,trials.thisTrialN,trials.thisN,trials.thisIndex,thisRow.t,notes,trial.started,num_distr,Fixation.started,target.started,mouse.started,trial.stopped,mouse.x,mouse.y,mouse.leftButton,mouse.midButton,mouse.rightButton,mouse.time,mouse.clicked_name,participant,session,date,expName,psychopyVersion,frameRate,expStart,
0,0,0,0,0.16234859998803586,,0.02428369998233393,10,0.16234859998803586,0.16234859998803586,0.12845089996699244,2.900411000009626,[-0.4766666666666667],[-0.3333333333333333],[1],[0],[0],[2.7708593000425026],['target'],650536,001,2024-10-08_15h24.52.350,Session5_VisualSearch,2024.1.5,None,2024-10-08 15h25.01.999799 +0530,
1,0,1,0,3.1475183999864385,,2.9249754999764264,10,3.1475183999864385,3.1475183999864385,0.15682399994693696,5.416888499981724,[0.325],[-0.43833333333333335],[1],[0],[0],[2.3370910999947228],['target'],650536,001,2024-10-08_15h24.52.350,Session5_VisualSearch,2024.1.5,None,2024-10-08 15h25.01.999799 +0530,
2,0,2,0,5.545338199997786,,5.434221100003924,5,5.545338199997786,5.545338199997786,0.07727139996131882,7.31668659998104,[0.06166666666666667],[0.19333333333333333],[1],[0],[0],[1.80889450001996],['target'],650536,001,2024-10-08_15h24.52.350,Session5_VisualSearch,2024.1.5,None,2024-10-08 15h25.01.999799 +0530,
3,0,3,0,7.447495399974287,,7.333087500010151,5,7.447495399974287,7.447495399974287,0.07721630000742152,8.88468760001706,[0.21],[0.3416666666666667],[1],[0],[0],[1.4779048999771476],['target'],650536,001,2024-10-08_15h24.52.350,Session5_VisualSearch,2024.1.5,None,2024-10-08 15h25.01.999799 +0530,
4,0,4,0,9.112288200005423,,8.900675499986392,10,9.112288200005423,9.112288200005423,0.14773969998350367,11.57960350002395,[-0.05333333333333334],[0.4766666666666667],[1],[0],[0],[2.533774200011976],['target'],650536,001,2024-10-08_15h24.52.350,Session5_VisualSearch,2024.1.5,None,2024-10-08 15h25.01.999799 +0530,
5,0,5,0,11.677607399993576,,11.586832200002391,10,11.677607399993576,11.677607399993576,0.06387799995718524,13.480382299982011,[0.08833333333333333],[-0.27],[1],[0],[0],[1.8305233000428416],['target'],650536,001,2024-10-08_15h24.52.350,Session5_VisualSearch,2024.1.5,None,2024-10-08 15h25.01.999799 +0530,
6,0,6,0,13.57748099998571,,13.487601900007576,10,13.57748099998571,13.57748099998571,0.06495259999064729,15.266367100004572,[-0.15666666666666668],[0.245],[1],[0],[0],[1.7141538999858312],['target'],650536,001,2024-10-08_15h24.52.350,Session5_VisualSearch,2024.1.5,None,2024-10-08 15h25.01.999799 +0530,
7,0,7,0,15.495750400004908,,15.28389119997155,10,15.495750400004908,15.495750400004908,0.15082239999901503,17.245634499995504,[0.3883333333333333],[-0.155],[1],[0],[0],[1.814888399967458],['target'],650536,001,2024-10-08_15h24.52.350,Session5_VisualSearch,2024.1.5,None,2024-10-08 15h25.01.999799 +0530,
8,0,8,0,17.310177100007422,,17.25315830000909,5,17.310177100007422,17.310177100007422,0.03831380000337958,19.23219299997436,[-0.22166666666666668],[-0.3933333333333333],[1],[0],[0],[1.9410460999934003],['target'],650536,001,2024-10-08_15h24.52.350,Session5_VisualSearch,2024.1.5,None,2024-10-08 15h25.01.999799 +0530,
9,0,9,0,19.462679599993862,,19.250018000020646,10,19.462679599993862,19.462679599993862,0.15140989999054,20.82943250000244,[0.04833333333333333],[-0.40166666666666667],[1],[0],[0],[1.4341226000105962],['target'],650536,001,2024-10-08_15h24.52.350,Session5_VisualSearch,2024.1.5,None,2024-10-08 15h25.01.999799 +0530,
10,0,10,0,20.90966240002308,,20.836839199997485,5,20.90966240002308,20.90966240002308,0.040030899981502444,22.92934819997754,[0.38166666666666665],[0.355],[1],[0],[0],[2.053737699985504],['target'],650536,001,2024-10-08_15h24.52.350,Session5_VisualSearch,2024.1.5,None,2024-10-08 15h25.01.999799 +0530,
11,0,11,0,23.059742100012954,,22.938133999996353,10,23.059742100012954,23.059742100012954,0.08740099996794015,24.733442900003865,[0.20166666666666666],[-0.19333333333333333],[1],[0],[0],[1.7084138999925926],['target'],650536,001,2024-10-08_15h24.52.350,Session5_VisualSearch,2024.1.5,None,2024-10-08 15h25.01.999799 +0530,
12,0,12,0,24.909129299980123,,24.751383599999826,10,24.909129299980123,24.909129299980123,0.13954290002584457,26.564316499978304,[0.25166666666666665],[-0.005],[1],[0],[0],[1.6767735999892466],['target'],650536,001,2024-10-08_15h24.52.350,Session5_VisualSearch,2024.1.5,None,2024-10-08 15h25.01.999799 +0530,
13,0,13,0,26.776639399991836,,26.582526299986057,10,26.776639399991836,26.776639399991836,0.14642589999129996,28.181491399998777,[-0.18],[-0.105],[1],[0],[0],[1.4561896999948658],['target'],650536,001,2024-10-08_15h24.52.350,Session5_VisualSearch,2024.1.5,None,2024-10-08 15h25.01.999799 +0530,
14,0,14,0,28.326931899995543,,28.20395739999367,5,28.326931899995543,28.326931899995543,0.0774171999655664,30.04761830001371,[0.2683333333333333],[0.305],[1],[0],[0],[1.7684174999594688],['target'],650536,001,2024-10-08_15h24.52.350,Session5_VisualSearch,2024.1.5,None,2024-10-08 15h25.01.999799 +0530,
15,0,15,0,30.194182500010356,,30.07066389999818,5,30.194182500010356,30.194182500010356,0.08527040004264563,31.61325290001696,[-0.195],[0.46166666666666667],[1],[0],[0],[1.4651026999927126],['target'],650536,001,2024-10-08_15h24.52.350,Session5_VisualSearch,2024.1.5,None,2024-10-08 15h25.01.999799 +0530,
16,0,16,0,31.843410299974494,,31.63104419998126,10,31.843410299974494,31.843410299974494,0.15179340000031516,33.67958009999711,[0.3516666666666667],[0.36833333333333335],[1],[0],[0],[1.9017065999796614],['target'],650536,001,2024-10-08_15h24.52.350,Session5_VisualSearch,2024.1.5,None,2024-10-08 15h25.01.999799 +0530,
17,0,17,0,33.84112739999546,,33.69601920002606,10,33.84112739999546,33.84112739999546,0.1273221999872476,35.44495919998735,[0.185],[0.38166666666666665],[1],[0],[0],[1.6253676999476738],['target'],650536,001,2024-10-08_15h24.52.350,Session5_VisualSearch,2024.1.5,None,2024-10-08 15h25.01.999799 +0530,
18,0,18,0,35.5586737000267,,35.46309109998401,5,35.5586737000267,35.5586737000267,0.061610099975951016,36.995975699974224,[-0.05333333333333334],[0.3466666666666667],[1],[0],[0],[1.4725938999908976],['target'],650536,001,2024-10-08_15h24.52.350,Session5_VisualSearch,2024.1.5,None,2024-10-08 15h25.01.999799 +0530,
19,0,19,0,37.190715899982024,,37.014502300007734,10,37.190715899982024,37.190715899982024,0.14160510001238436,38.52616730000591,[-0.12166666666666667],[0.065],[1],[0],[0],[1.3744528000243008],['target'],650536,001,2024-10-08_15h24.52.350,Session5_VisualSearch,2024.1.5,None,2024-10-08 15h25.01.999799 +0530,
20,0,20,0,38.60755580000114,,38.53316759999143,5,38.60755580000114,38.60755580000114,0.04205039999214932,39.9801768999896,[-0.31333333333333335],[0.39],[1],[0],[0],[1.4053774999920279],['target'],650536,001,2024-10-08_15h24.52.350,Session5_VisualSearch,2024.1.5,None,2024-10-08 15h25.01.999799 +0530,
21,0,21,0,40.17502660001628,,39.999001700023655,10,40.17502660001628,40.17502660001628,0.1367146999691613,41.779022499977145,[0.10833333333333334],[0.33],[1],[0],[0],[1.6475508000003174],['target'],650536,001,2024-10-08_15h24.52.350,Session5_VisualSearch,2024.1.5,None,2024-10-08 15h25.01.999799 +0530,
22,0,22,0,41.923721299972385,,41.795784900023136,10,41.923721299972385,41.923721299972385,0.09788860002299771,43.32859809999354,[-0.44333333333333336],[0.16166666666666665],[1],[0],[0],[1.438600099994801],['target'],650536,001,2024-10-08_15h24.52.350,Session5_VisualSearch,2024.1.5,None,2024-10-08 15h25.01.999799 +0530,
23,0,23,0,43.523306699993555,,43.348736400017515,10,43.523306699993555,43.523306699993555,0.1447929999558255,45.325859699980356,[0.27666666666666667],[0.36833333333333335],[1],[0],[0],[1.8370944000198506],['target'],650536,001,2024-10-08_15h24.52.350,Session5_VisualSearch,2024.1.5,None,2024-10-08 15h25.01.999799 +0530,
24,0,24,0,45.43968379998114,,45.3357476000092,10,45.43968379998114,45.43968379998114,0.0782486999523826,46.7766959000146,[-0.12666666666666668],[0.13666666666666666],[1],[0],[0],[1.3635006999829784],['target'],650536,001,2024-10-08_15h24.52.350,Session5_VisualSearch,2024.1.5,None,2024-10-08 15h25.01.999799 +0530,
25,0,25,0,46.90617309999652,,46.793673100008164,10,46.90617309999652,46.90617309999652,0.0806198000209406,48.11167630000273,[-0.25833333333333336],[0.18833333333333332],[1],[0],[0],[1.2415145999984816],['target'],650536,001,2024-10-08_15h24.52.350,Session5_VisualSearch,2024.1.5,None,2024-10-08 15h25.01.999799 +0530,
26,0,26,0,48.257482299988624,,48.131351999996696,5,48.257482299988624,48.257482299988624,0.07979039999190718,49.81312180001987,[0.385],[-0.21166666666666667],[1],[0],[0],[1.606065200001467],['target'],650536,001,2024-10-08_15h24.52.350,Session5_VisualSearch,2024.1.5,None,2024-10-08 15h25.01.999799 +0530,
27,0,27,0,50.05702599999495,,49.83296289999271,10,50.05702599999495,50.05702599999495,0.15644150000298396,51.72940740000922,[-0.145],[0.14833333333333334],[1],[0],[0],[1.7424260000116192],['target'],650536,001,2024-10-08_15h24.52.350,Session5_VisualSearch,2024.1.5,None,2024-10-08 15h25.01.999799 +0530,
28,0,28,0,51.956824900000356,,51.745935400016606,10,51.956824900000356,51.956824900000356,0.1470710000139661,53.47740390000399,[0.49166666666666664],[-0.135],[1],[0],[0],[1.5869792000157759],['target'],650536,001,2024-10-08_15h24.52.350,Session5_VisualSearch,2024.1.5,None,2024-10-08 15h25.01.999799 +0530,
29,0,29,0,53.622273200016934,,53.49380649998784,10,53.622273200016934,53.622273200016934,0.1072211999562569,55.75783999997657,[-0.45166666666666666],[-0.12166666666666667],[1],[0],[0],[2.1612611999735236],['target'],650536,001,2024-10-08_15h24.52.350,Session5_VisualSearch,2024.1.5,None,2024-10-08 15h25.01.999799 +0530,
30,0,30,0,55.82204990001628,,55.76573719998123,5,55.82204990001628,55.82204990001628,0.0399193000048399,57.242551299976185,[-0.19833333333333333],[0.16166666666666665],[1],[0],[0],[1.4380330000421964],['target'],650536,001,2024-10-08_15h24.52.350,Session5_VisualSearch,2024.1.5,None,2024-10-08 15h25.01.999799 +0530,
31,0,31,0,57.371874500007834,,57.251916599983815,10,57.371874500007834,57.371874500007834,0.08778820000588894,60.42767180001829,[-0.08166666666666667],[0.24833333333333332],[1],[0],[0],[3.088895599998068],['target'],650536,001,2024-10-08_15h24.52.350,Session5_VisualSearch,2024.1.5,None,2024-10-08 15h25.01.999799 +0530,
32,0,32,0,60.57301270001335,,60.4454354000045,5,60.57301270001335,60.57301270001335,0.07786730001680553,62.87689449999016,[0.36833333333333335],[0.225],[1],[0],[0],[2.3563690000446513],['target'],650536,001,2024-10-08_15h24.52.350,Session5_VisualSearch,2024.1.5,None,2024-10-08 15h25.01.999799 +0530,
33,0,33,0,63.10470169998007,,62.89286889997311,10,63.10470169998007,63.10470169998007,0.14895409997552633,64.52546739997342,[0.2733333333333333],[-0.37666666666666665],[1],[0],[0],[1.4869319000281394],['target'],650536,001,2024-10-08_15h24.52.350,Session5_VisualSearch,2024.1.5,None,2024-10-08 15h25.01.999799 +0530,
34,0,34,0,64.70433460001368,,64.54285780002829,10,64.70433460001368,64.70433460001368,0.1364006000221707,65.92605230002664,[-0.08666666666666667],[0.10166666666666667],[1],[0],[0],[1.249936800042633],['target'],650536,001,2024-10-08_15h24.52.350,Session5_VisualSearch,2024.1.5,None,2024-10-08 15h25.01.999799 +0530,
35,0,35,0,66.03777950000949,,65.94358040002408,5,66.03777950000949,66.03777950000949,0.06813359999796376,68.25940859998809,[-0.275],[-0.2916666666666667],[1],[0],[0],[2.251793399977032],['target'],650536,001,2024-10-08_15h24.52.350,Session5_VisualSearch,2024.1.5,None,2024-10-08 15h25.01.999799 +0530,
36,0,36,0,68.35348519997206,,68.27523430000292,5,68.35348519997206,68.35348519997206,0.06413830001838505,69.67487719998462,[-0.015],[-0.27166666666666667],[1],[0],[0],[1.3389544999809004],['target'],650536,001,2024-10-08_15h24.52.350,Session5_VisualSearch,2024.1.5,None,2024-10-08 15h25.01.999799 +0530,
37,0,37,0,69.80321679997724,,69.69067909999285,10,69.80321679997724,69.80321679997724,0.09468849998665974,73.75759250001283,[-0.15833333333333333],[0.4583333333333333],[1],[0],[0],[3.9758332000346854],['target'],650536,001,2024-10-08_15h24.52.350,Session5_VisualSearch,2024.1.5,None,2024-10-08 15h25.01.999799 +0530,
38,0,38,0,73.98801799997455,,73.77418180002132,10,73.98801799997455,73.98801799997455,0.14366620004875585,76.12140449997969,[-0.37166666666666665],[-0.24166666666666667],[1],[0],[0],[2.206885100051295],['target'],650536,001,2024-10-08_15h24.52.350,Session5_VisualSearch,2024.1.5,None,2024-10-08 15h25.01.999799 +0530,
39,0,39,0,76.2352688999963,,76.12892270000884,10,76.2352688999963,76.2352688999963,0.08009699999820441,78.4079968999722,[-0.041666666666666664],[-0.41833333333333333],[1],[0],[0],[2.1996027000132017],['target'],650536,001,2024-10-08_15h24.52.350,Session5_VisualSearch,2024.1.5,None,2024-10-08 15h25.01.999799 +0530,
40,0,40,0,78.56942249997519,,78.43135219998658,10,78.56942249997519,78.56942249997519,0.106028999958653,80.15609170001699,[0.37833333333333335],[-0.075],[1],[0],[0],[1.6219156999723054],['target'],650536,001,2024-10-08_15h24.52.350,Session5_VisualSearch,2024.1.5,None,2024-10-08 15h25.01.999799 +0530,
41,0,41,0,80.26873820001492,,80.16479190002428,10,80.26873820001492,80.26873820001492,0.0704126000055112,83.42072549997829,[-0.10833333333333334],[-0.26166666666666666],[1],[0],[0],[3.1865860000252724],['target'],650536,001,2024-10-08_15h24.52.350,Session5_VisualSearch,2024.1.5,None,2024-10-08 15h25.01.999799 +0530,
42,0,42,0,83.53553519997513,,83.42835140001262,10,83.53553519997513,83.53553519997513,0.07269760000053793,86.05460229999153,[-0.40166666666666667],[-0.11],[1],[0],[0],[2.554379000037443],['target'],650536,001,2024-10-08_15h24.52.350,Session5_VisualSearch,2024.1.5,None,2024-10-08 15h25.01.999799 +0530,
43,0,43,0,86.16810700000497,,86.07341830001678,10,86.16810700000497,86.16810700000497,0.06683190003968775,88.62344629998552,[0.2783333333333333],[0.3383333333333333],[1],[0],[0],[2.486250200017821],['target'],650536,001,2024-10-08_15h24.52.350,Session5_VisualSearch,2024.1.5,None,2024-10-08 15h25.01.999799 +0530,
44,0,44,0,88.76765039999736,,88.64296169998124,10,88.76765039999736,88.76765039999736,0.09424219996435568,90.38867179997033,[-0.28],[0.3566666666666667],[1],[0],[0],[1.6535127999959514],['target'],650536,001,2024-10-08_15h24.52.350,Session5_VisualSearch,2024.1.5,None,2024-10-08 15h25.01.999799 +0530,
45,0,45,0,90.60356989997672,,90.40784150001127,10,90.60356989997672,90.60356989997672,0.13172489998396486,91.77401410002494,[-0.155],[0.415],[1],[0],[0],[1.237583700043615],['target'],650536,001,2024-10-08_15h24.52.350,Session5_VisualSearch,2024.1.5,None,2024-10-08 15h25.01.999799 +0530,
46,0,46,0,91.91881629999261,,91.79079910001019,5,91.91881629999261,91.91881629999261,0.07740030001150444,93.32187859999249,[0.11],[0.43666666666666665],[1],[0],[0],[1.4558779000071809],['target'],650536,001,2024-10-08_15h24.52.350,Session5_VisualSearch,2024.1.5,None,2024-10-08 15h25.01.999799 +0530,
47,0,47,0,93.5170017000055,,93.34044930001255,10,93.5170017000055,93.5170017000055,0.14384390000486746,94.84245340002235,[0.185],[0.18333333333333332],[1],[0],[0],[1.3634013999835588],['target'],650536,001,2024-10-08_15h24.52.350,Session5_VisualSearch,2024.1.5,None,2024-10-08 15h25.01.999799 +0530,
48,0,48,0,94.98360829998273,,94.86840879998636,5,94.98360829998273,94.98360829998273,0.08992439997382462,96.39062279998325,[0.365],[0.09333333333333334],[1],[0],[0],[1.4376541000092402],['target'],650536,001,2024-10-08_15h24.52.350,Session5_VisualSearch,2024.1.5,None,2024-10-08 15h25.01.999799 +0530,
49,0,49,0,96.5188243999728,,96.40888730000006,5,96.5188243999728,96.5188243999728,0.0770702000008896,98.08752599998843,[0.008333333333333333],[0.37166666666666665],[1],[0],[0],[1.604787899996154],['target'],650536,001,2024-10-08_15h24.52.350,Session5_VisualSearch,2024.1.5,None,2024-10-08 15h25.01.999799 +0530,
50,0,50,0,98.24977559997933,,98.10390919999918,10,98.24977559997933,98.24977559997933,0.12680940004065633,102.32159579999279,[0.2916666666666667],[-0.48833333333333334],[1],[0],[0],[4.094798100006301],['target'],650536,001,2024-10-08_15h24.52.350,Session5_VisualSearch,2024.1.5,None,2024-10-08 15h25.01.999799 +0530,
51,0,51,0,102.44939119997434,,102.33930789999431,5,102.44939119997434,102.44939119997434,0.0763996999594383,103.85443599999417,[0.041666666666666664],[-0.20166666666666666],[1],[0],[0],[1.4431685999734327],['target'],650536,001,2024-10-08_15h24.52.350,Session5_VisualSearch,2024.1.5,None,2024-10-08 15h25.01.999799 +0530,
52,0,52,0,103.98400810000021,,103.87031019997085,5,103.98400810000021,103.98400810000021,0.07788419997086748,105.45363499998348,[-0.20833333333333334],[0.34],[1],[0],[0],[1.5088970999931917],['target'],650536,001,2024-10-08_15h24.52.350,Session5_VisualSearch,2024.1.5,None,2024-10-08 15h25.01.999799 +0530,
53,0,53,0,105.68383639998501,,105.46980600000825,10,105.68383639998501,105.68383639998501,0.1467386000440456,107.72016309999162,[0.365],[-0.24833333333333332],[1],[0],[0],[2.1074986000312492],['target'],650536,001,2024-10-08_15h24.52.350,Session5_VisualSearch,2024.1.5,None,2024-10-08 15h25.01.999799 +0530,
54,0,54,0,107.85050230001798,,107.73670990002574,5,107.85050230001798,107.85050230001798,0.07484429999021813,110.19022019999102,[0.3516666666666667],[0.095],[1],[0],[0],[2.3823095000116155],['target'],650536,001,2024-10-08_15h24.52.350,Session5_VisualSearch,2024.1.5,None,2024-10-08 15h25.01.999799 +0530,
55,0,55,0,110.41658020002069,,110.21028689999366,10,110.41658020002069,110.41658020002069,0.13945129996864125,111.95231889997376,[0.2966666666666667],[0.405],[1],[0],[0],[1.604365399980452],['target'],650536,001,2024-10-08_15h24.52.350,Session5_VisualSearch,2024.1.5,None,2024-10-08 15h25.01.999799 +0530,
56,0,56,0,112.1017488000216,,111.96840209997026,5,112.1017488000216,112.1017488000216,0.08037570002488792,113.40652060002321,[0.24833333333333332],[0.345],[1],[0],[0],[1.3605900999973528],['target'],650536,001,2024-10-08_15h24.52.350,Session5_VisualSearch,2024.1.5,None,2024-10-08 15h25.01.999799 +0530,
57,0,57,0,113.565749100002,,113.4421311999904,5,113.565749100002,113.565749100002,0.09116439998615533,115.1532885999768,[0.315],[0.28],[1],[0],[0],[1.6270281000179239],['target'],650536,001,2024-10-08_15h24.52.350,Session5_VisualSearch,2024.1.5,None,2024-10-08 15h25.01.999799 +0530,
58,0,58,0,115.31462820002344,,115.17434069997398,10,115.31462820002344,115.31462820002344,0.11684659996535629,118.94918930000858,[-0.355],[-0.4683333333333333],[1],[0],[0],[3.6631737999850884],['target'],650536,001,2024-10-08_15h24.52.350,Session5_VisualSearch,2024.1.5,None,2024-10-08 15h25.01.999799 +0530,
59,0,59,0,119.01391729997704,,118.95652680000057,5,119.01391729997704,119.01391729997704,0.037787700013723224,120.63312960002804,[-0.3933333333333333],[-0.455],[1],[0],[0],[1.6395101000089198],['target'],650536,001,2024-10-08_15h24.52.350,Session5_VisualSearch,2024.1.5,None,2024-10-08 15h25.01.999799 +0530,
60,0,60,0,120.76360509998631,,120.64235149999149,10,120.76360509998631,120.76360509998631,0.09142989997053519,122.30378229997586,[0.36333333333333334],[0.16166666666666665],[1],[0],[0],[1.571324700023979],['target'],650536,001,2024-10-08_15h24.52.350,Session5_VisualSearch,2024.1.5,None,2024-10-08 15h25.01.999799 +0530,
61,0,61,0,122.44659710000269,,122.32118969998555,10,122.44659710000269,122.44659710000269,0.10456750000594184,124.03676599997561,[0.3416666666666667],[0.2866666666666667],[1],[0],[0],[1.6127210999839008],['target'],650536,001,2024-10-08_15h24.52.350,Session5_VisualSearch,2024.1.5,None,2024-10-08 15h25.01.999799 +0530,
62,0,62,0,124.16274419997353,,124.06447340000886,10,124.16274419997353,124.16274419997353,0.08696330001112074,126.38472730002832,[0.265],[-0.22166666666666668],[1],[0],[0],[2.239568800025154],['target'],650536,001,2024-10-08_15h24.52.350,Session5_VisualSearch,2024.1.5,None,2024-10-08 15h25.01.999799 +0530,
63,0,63,0,126.62972359999549,,126.40691979997791,10,126.62972359999549,126.62972359999549,0.14681529998779297,128.07020730001386,[-0.235],[-0.335],[1],[0],[0],[1.5200547000276856],['target'],650536,001,2024-10-08_15h24.52.350,Session5_VisualSearch,2024.1.5,None,2024-10-08 15h25.01.999799 +0530,
64,0,64,0,128.29944299999624,,128.08732799999416,10,128.29944299999624,128.29944299999624,0.14830880000954494,129.68392270000186,[-0.455],[-0.415],[1],[0],[0],[1.450303099991288],['target'],650536,001,2024-10-08_15h24.52.350,Session5_VisualSearch,2024.1.5,None,2024-10-08 15h25.01.999799 +0530,
65,0,65,0,129.81444079999346,,129.70347950002179,5,129.81444079999346,129.81444079999346,0.07617849996313453,132.21741490002023,[0.055],[-0.02666666666666667],[1],[0],[0],[2.4431274999515153],['target'],650536,001,2024-10-08_15h24.52.350,Session5_VisualSearch,2024.1.5,None,2024-10-08 15h25.01.999799 +0530,
66,0,66,0,132.32856799999718,,132.2349252999993,5,132.32856799999718,132.32856799999718,0.0717284000129439,133.74786830000812,[0.365],[-0.18166666666666667],[1],[0],[0],[1.444950900040567],['target'],650536,001,2024-10-08_15h24.52.350,Session5_VisualSearch,2024.1.5,None,2024-10-08 15h25.01.999799 +0530,
67,0,67,0,133.86203090002527,,133.7574885999784,10,133.86203090002527,133.86203090002527,0.08137319999514148,137.4165586999734,[-0.15833333333333333],[-0.19666666666666666],[1],[0],[0],[3.5785966999828815],['target'],650536,001,2024-10-08_15h24.52.350,Session5_VisualSearch,2024.1.5,None,2024-10-08 15h25.01.999799 +0530,
68,0,68,0,137.54462940001395,,137.43668589997105,10,137.54462940001395,137.54462940001395,0.09590040001785383,138.99983280000743,[-0.07],[0.06666666666666667],[1],[0],[0],[1.4726044000126421],['target'],650536,001,2024-10-08_15h24.52.350,Session5_VisualSearch,2024.1.5,None,2024-10-08 15h25.01.999799 +0530,
69,0,69,0,139.2295852000243,,139.01610990002519,10,139.2295852000243,139.2295852000243,0.14641570003004745,141.20193009998184,[-0.10166666666666667],[0.295],[1],[0],[0],[2.043050999986008],['target'],650536,001,2024-10-08_15h24.52.350,Session5_VisualSearch,2024.1.5,None,2024-10-08 15h25.01.999799 +0530,
70,0,70,0,141.32775050000055,,141.219164500013,5,141.32775050000055,141.32775050000055,0.07180410000728443,143.2342925000121,[-0.46166666666666667],[-0.395],[1],[0],[0],[1.9457051000208594],['target'],650536,001,2024-10-08_15h24.52.350,Session5_VisualSearch,2024.1.5,None,2024-10-08 15h25.01.999799 +0530,
71,0,71,0,143.36011760000838,,143.25089530000696,10,143.36011760000838,143.36011760000838,0.0903878000099212,145.68227330001537,[0.27],[0.30666666666666664],[1],[0],[0],[2.3428647000109777],['target'],650536,001,2024-10-08_15h24.52.350,Session5_VisualSearch,2024.1.5,None,2024-10-08 15h25.01.999799 +0530,
72,0,72,0,145.79411399998935,,145.700752499979,5,145.79411399998935,145.79411399998935,0.06930839997949079,147.62906860001385,[-0.4483333333333333],[0.3233333333333333],[1],[0],[0],[1.863912800035905],['target'],650536,001,2024-10-08_15h24.52.350,Session5_VisualSearch,2024.1.5,None,2024-10-08 15h25.01.999799 +0530,
73,0,73,0,147.760047400021,,147.63686710002366,10,147.760047400021,147.760047400021,0.08236989995930344,150.3972626000177,[-0.3416666666666667],[-0.175],[1],[0],[0],[2.6784837000304833],['target'],650536,001,2024-10-08_15h24.52.350,Session5_VisualSearch,2024.1.5,None,2024-10-08 15h25.01.999799 +0530,
74,0,74,0,150.52673129999312,,150.41730839997763,5,150.52673129999312,150.52673129999312,0.07468999997945502,152.5299124000012,[0.41333333333333333],[-0.23833333333333334],[1],[0],[0],[2.041886299964972],['target'],650536,001,2024-10-08_15h24.52.350,Session5_VisualSearch,2024.1.5,None,2024-10-08 15h25.01.999799 +0530,
75,0,75,0,152.62637760001235,,152.53962390002562,5,152.62637760001235,152.62637760001235,0.05200329999206588,154.528588199988,[-0.175],[0.165],[1],[0],[0],[1.9384033000096679],['target'],650536,001,2024-10-08_15h24.52.350,Session5_VisualSearch,2024.1.5,None,2024-10-08 15h25.01.999799 +0530,
76,0,76,0,154.60961039998801,,154.5375135000213,5,154.60961039998801,154.60961039998801,0.04757910000625998,156.54498479998438,[0.3516666666666667],[0.165],[1],[0],[0],[1.961056699976325],['target'],650536,001,2024-10-08_15h24.52.350,Session5_VisualSearch,2024.1.5,None,2024-10-08 15h25.01.999799 +0530,
77,0,77,0,156.6255849999725,,156.5537539999932,5,156.6255849999725,156.6255849999725,0.04915119998622686,158.21927900001174,[-0.3983333333333333],[0.325],[1],[0],[0],[1.6171996999764815],['target'],650536,001,2024-10-08_15h24.52.350,Session5_VisualSearch,2024.1.5,None,2024-10-08 15h25.01.999799 +0530,
78,0,78,0,158.34215250000125,,158.2489818999893,5,158.34215250000125,158.34215250000125,0.07362850004574284,159.8303872999968,[0.45],[0.075],[1],[0],[0],[1.5128405000432394],['target'],650536,001,2024-10-08_15h24.52.350,Session5_VisualSearch,2024.1.5,None,2024-10-08 15h25.01.999799 +0530,
79,0,79,0,160.02555720001692,,159.8473916000221,10,160.02555720001692,160.02555720001692,0.14574910001829267,161.72858950000955,[-0.035],[-0.43833333333333335],[1],[0],[0],[1.7393679000088014],['target'],650536,001,2024-10-08_15h24.52.350,Session5_VisualSearch,2024.1.5,None,2024-10-08 15h25.01.999799 +0530,
80,0,80,0,161.87492929998552,,161.73737280000933,10,161.87492929998552,161.87492929998552,0.09304020000854507,166.09328670002287,[-0.06833333333333333],[-0.22833333333333333],[1],[0],[0],[4.264360399974976],['target'],650536,001,2024-10-08_15h24.52.350,Session5_VisualSearch,2024.1.5,None,2024-10-08 15h25.01.999799 +0530,
81,0,81,0,166.15756359999068,,166.1022850999725,5,166.15756359999068,166.15756359999068,0.0369776000152342,170.0973180999863,[-0.03666666666666667],[0.045],[1],[0],[0],[3.9590524999657646],[],650536,001,2024-10-08_15h24.52.350,Session5_VisualSearch,2024.1.5,None,2024-10-08 15h25.01.999799 +0530,
82,0,82,0,170.2254382999963,,170.11543890001485,5,170.2254382999963,170.2254382999963,0.07474020001245663,171.67674259998603,[-0.1],[0.3016666666666667],[1],[0],[0],[1.4905016999691725],['target'],650536,001,2024-10-08_15h24.52.350,Session5_VisualSearch,2024.1.5,None,2024-10-08 15h25.01.999799 +0530,
83,0,83,0,171.7569111000048,,171.69486270000925,5,171.7569111000048,171.7569111000048,0.03866089996881783,173.62532460002694,[0.2833333333333333],[-0.24666666666666667],[1],[0],[0],[1.8952133000129834],['target'],650536,001,2024-10-08_15h24.52.350,Session5_VisualSearch,2024.1.5,None,2024-10-08 15h25.01.999799 +0530,
84,0,84,0,173.70720369997434,,173.63515159999952,5,173.70720369997434,173.70720369997434,0.04318729997612536,175.56165350001538,[0.1],[0.10833333333333334],[1],[0],[0],[1.8836875000270084],['target'],650536,001,2024-10-08_15h24.52.350,Session5_VisualSearch,2024.1.5,None,2024-10-08 15h25.01.999799 +0530,
85,0,85,0,175.73959160002414,,175.58383359998697,10,175.73959160002414,175.73959160002414,0.13670059997821227,177.04520400002366,[-0.02],[-0.21],[1],[0],[0],[1.3279861999908462],['target'],650536,001,2024-10-08_15h24.52.350,Session5_VisualSearch,2024.1.5,None,2024-10-08 15h25.01.999799 +0530,
86,0,86,0,177.19113270001253,,177.06448190001538,5,177.19113270001253,177.19113270001253,0.08664270001463592,179.96306049998384,[0.3516666666666667],[0.42833333333333334],[1],[0],[0],[2.817668200004846],['target'],650536,001,2024-10-08_15h24.52.350,Session5_VisualSearch,2024.1.5,None,2024-10-08 15h25.01.999799 +0530,
87,0,87,0,180.1075189000112,,179.9795143000083,5,180.1075189000112,180.1075189000112,0.07536630000686273,181.82698770001298,[-0.021666666666666667],[0.295],[1],[0],[0],[1.773791000014171],['target'],650536,001,2024-10-08_15h24.52.350,Session5_VisualSearch,2024.1.5,None,2024-10-08 15h25.01.999799 +0530,
88,0,88,0,181.93979949998902,,181.84757039998658,5,181.93979949998902,181.93979949998902,0.062053299974650145,183.2436051000259,[0.06166666666666667],[-0.115],[1],[0],[0],[1.3410365000017919],['target'],650536,001,2024-10-08_15h24.52.350,Session5_VisualSearch,2024.1.5,None,2024-10-08 15h25.01.999799 +0530,
89,0,89,0,183.3732373000239,,183.2601853000233,5,183.3732373000239,183.3732373000239,0.07687790005002171,185.51000720000593,[0.11166666666666666],[-0.23166666666666666],[1],[0],[0],[2.176863799977582],['target'],650536,001,2024-10-08_15h24.52.350,Session5_VisualSearch,2024.1.5,None,2024-10-08 15h25.01.999799 +0530,
90,0,90,0,185.74027000000933,,185.5268893999746,10,185.74027000000933,185.74027000000933,0.14323269994929433,187.22483249998186,[-0.03333333333333333],[-0.21166666666666667],[1],[0],[0],[1.5584794000023976],['target'],650536,001,2024-10-08_15h24.52.350,Session5_VisualSearch,2024.1.5,None,2024-10-08 15h25.01.999799 +0530,
91,0,91,0,187.32176540000364,,187.23189860000275,10,187.32176540000364,187.32176540000364,0.06855969998287037,188.87627609999618,[-0.08166666666666667],[0.028333333333333332],[1],[0],[0],[1.5760998000041582],['target'],650536,001,2024-10-08_15h24.52.350,Session5_VisualSearch,2024.1.5,None,2024-10-08 15h25.01.999799 +0530,
92,0,92,0,189.00712959998054,,188.89400390000083,5,189.00712959998054,189.00712959998054,0.07634250004775822,191.34257209999487,[0.018333333333333333],[0.3933333333333333],[1],[0],[0],[2.3768771999748424],['target'],650536,001,2024-10-08_15h24.52.350,Session5_VisualSearch,2024.1.5,None,2024-10-08 15h25.01.999799 +0530,
93,0,93,0,191.5730321999872,,191.35995680000633,10,191.5730321999872,191.5730321999872,0.1550723999971524,193.34253299998818,[-0.18],[0.2783333333333333],[1],[0],[0],[1.8316789999953471],['target'],650536,001,2024-10-08_15h24.52.350,Session5_VisualSearch,2024.1.5,None,2024-10-08 15h25.01.999799 +0530,
94,0,94,0,193.47258260002127,,193.3607910000137,5,193.47258260002127,193.47258260002127,0.07793640001909807,195.10972910001874,[0.12666666666666668],[-0.018333333333333333],[1],[0],[0],[1.6753044000361115],['target'],650536,001,2024-10-08_15h24.52.350,Session5_VisualSearch,2024.1.5,None,2024-10-08 15h25.01.999799 +0530,
95,0,95,0,195.33896399999503,,195.12674089998472,10,195.33896399999503,195.33896399999503,0.1432331000105478,198.82588389999,[-0.475],[-0.4633333333333333],[1],[0],[0],[3.5601155000040308],['target'],650536,001,2024-10-08_15h24.52.350,Session5_VisualSearch,2024.1.5,None,2024-10-08 15h25.01.999799 +0530,
96,0,96,0,198.98650569998426,,198.84520929999417,10,198.98650569998426,198.98650569998426,0.1093865999719128,200.7745332000195,[0.28833333333333333],[-0.115],[1],[0],[0],[1.8218862999929115],['target'],650536,001,2024-10-08_15h24.52.350,Session5_VisualSearch,2024.1.5,None,2024-10-08 15h25.01.999799 +0530,
97,0,97,0,201.0046627999982,,200.79168229998322,10,201.0046627999982,201.0046627999982,0.14762659999541938,203.65904180001235,[0.29833333333333334],[-0.465],[1],[0],[0],[2.724783200013917],['target'],650536,001,2024-10-08_15h24.52.350,Session5_VisualSearch,2024.1.5,None,2024-10-08 15h25.01.999799 +0530,
98,0,98,0,203.9207890999969,,203.67861310002627,10,203.9207890999969,203.9207890999969,0.17812619998585433,207.72339399997145,[-0.325],[0.4583333333333333],[1],[0],[0],[3.8700212000403553],['target'],650536,001,2024-10-08_15h24.52.350,Session5_VisualSearch,2024.1.5,None,2024-10-08 15h25.01.999799 +0530,
99,0,99,0,207.83719779999228,,207.73861250001937,5,207.83719779999228,207.83719779999228,0.0686050999793224,210.22483490000013,[-0.44666666666666666],[0.495],[1],[0],[0],[2.421419300022535],['target'],650536,001,2024-10-08_15h24.52.350,Session5_VisualSearch,2024.1.5,None,2024-10-08 15h25.01.999799 +0530,
100,0,100,0,210.45316049997928,,210.2422089999891,10,210.45316049997928,210.45316049997928,0.1450948000419885,211.98742929997388,[-0.18],[0.47],[1],[0],[0],[1.6054698000079952],['target'],650536,001,2024-10-08_15h24.52.350,Session5_VisualSearch,2024.1.5,None,2024-10-08 15h25.01.999799 +0530,
101,0,101,0,212.05192669999087,,211.99495959997876,5,212.05192669999087,212.05192669999087,0.03866289998404682,213.8434785999707,[0.095],[-0.43166666666666664],[1],[0],[0],[1.8103941000299528],['target'],650536,001,2024-10-08_15h24.52.350,Session5_VisualSearch,2024.1.5,None,2024-10-08 15h25.01.999799 +0530,
102,0,102,0,213.98654740001075,,213.85960929997964,5,213.98654740001075,213.98654740001075,0.09039159998064861,215.47358360001817,[0.49166666666666664],[-0.275],[1],[0],[0],[1.5260788000305183],['target'],650536,001,2024-10-08_15h24.52.350,Session5_VisualSearch,2024.1.5,None,2024-10-08 15h25.01.999799 +0530,
103,0,103,0,215.60304379998706,,215.49330169998575,5,215.60304379998706,215.60304379998706,0.07380510005168617,217.18949959997553,[0.17],[0.315],[1],[0],[0],[1.6244221999659203],['target'],650536,001,2024-10-08_15h24.52.350,Session5_VisualSearch,2024.1.5,None,2024-10-08 15h25.01.999799 +0530,
104,0,104,0,217.31942189997062,,217.20787689997815,5,217.31942189997062,217.31942189997062,0.07876800000667572,218.82289990002755,[-0.08833333333333333],[-0.24833333333333332],[1],[0],[0],[1.542107599962037],['target'],650536,001,2024-10-08_15h24.52.350,Session5_VisualSearch,2024.1.5,None,2024-10-08 15h25.01.999799 +0530,
105,0,105,0,219.0506690000184,,218.8391769999871,10,219.0506690000184,219.0506690000184,0.14625859999796376,220.95514450001065,[-0.27666666666666667],[0.19],[1],[0],[0],[1.9733244000235572],['target'],650536,001,2024-10-08_15h24.52.350,Session5_VisualSearch,2024.1.5,None,2024-10-08 15h25.01.999799 +0530,
106,0,106,0,221.15060880000237,,220.97470580000663,10,221.15060880000237,221.15060880000237,0.15179529995657504,226.08834239997668,[-0.075],[0.041666666666666664],[1],[0],[0],[4.966499899979681],['target'],650536,001,2024-10-08_15h24.52.350,Session5_VisualSearch,2024.1.5,None,2024-10-08 15h25.01.999799 +0530,
107,0,107,0,226.21663779998198,,226.10468899999978,10,226.21663779998198,226.21663779998198,0.09139479999430478,227.62398690002738,[-0.26166666666666666],[0.023333333333333334],[1],[0],[0],[1.4308491999981925],['target'],650536,001,2024-10-08_15h24.52.350,Session5_VisualSearch,2024.1.5,None,2024-10-08 15h25.01.999799 +0530,
108,0,108,0,227.85215559997596,,227.64606409997214,10,227.85215559997596,227.85215559997596,0.14646580000407994,230.53902349999407,[0.13666666666666666],[-0.285],[1],[0],[0],[2.749793700000737],['target'],650536,001,2024-10-08_15h24.52.350,Session5_VisualSearch,2024.1.5,None,2024-10-08 15h25.01.999799 +0530,
109,0,109,0,230.69889729999704,,230.55915839999216,10,230.69889729999704,230.69889729999704,0.11339919996680692,233.0885985000059,[0.3466666666666667],[-0.25],[1],[0],[0],[2.418116699962411],['target'],650536,001,2024-10-08_15h24.52.350,Session5_VisualSearch,2024.1.5,None,2024-10-08 15h25.01.999799 +0530,
110,0,110,0,233.3176747999969,,233.1050992999808,10,233.3176747999969,233.3176747999969,0.1440946999937296,235.02094790001865,[-0.14333333333333334],[-0.19166666666666668],[1],[0],[0],[1.7748997999588028],['target'],650536,001,2024-10-08_15h24.52.350,Session5_VisualSearch,2024.1.5,None,2024-10-08 15h25.01.999799 +0530,
111,0,111,0,235.1501133000129,,235.03780210000696,5,235.1501133000129,235.1501133000129,0.07953289995202795,236.670573099982,[-0.20166666666666666],[0.07166666666666667],[1],[0],[0],[1.5561187000130303],['target'],650536,001,2024-10-08_15h24.52.350,Session5_VisualSearch,2024.1.5,None,2024-10-08 15h25.01.999799 +0530,
112,0,112,0,236.81707589997677,,236.6875316000078,5,236.81707589997677,236.81707589997677,0.08161110000219196,238.6009955999907,[-0.13833333333333334],[-0.415],[1],[0],[0],[1.8359853000147268],['target'],650536,001,2024-10-08_15h24.52.350,Session5_VisualSearch,2024.1.5,None,2024-10-08 15h25.01.999799 +0530,
113,0,113,0,238.71491610002704,,238.60931219998747,10,238.71491610002704,238.71491610002704,0.08038440003292635,240.48661640001228,[-0.2633333333333333],[-0.225],[1],[0],[0],[1.7978891999810003],['target'],650536,001,2024-10-08_15h24.52.350,Session5_VisualSearch,2024.1.5,None,2024-10-08 15h25.01.999799 +0530,
114,0,114,0,240.6314642999787,,240.5039512999938,10,240.6314642999787,240.6314642999787,0.10531850002007559,242.71767099999124,[0.20833333333333334],[0.16166666666666665],[1],[0],[0],[2.113549800007604],['target'],650536,001,2024-10-08_15h24.52.350,Session5_VisualSearch,2024.1.5,None,2024-10-08 15h25.01.999799 +0530,
115,0,115,0,242.78092619997915,,242.7251126000192,5,242.78092619997915,242.78092619997915,0.03861980000510812,244.5699089000118,[0.33166666666666667],[0.095],[1],[0],[0],[1.8063840999966487],['target'],650536,001,2024-10-08_15h24.52.350,Session5_VisualSearch,2024.1.5,None,2024-10-08 15h25.01.999799 +0530,
116,0,116,0,244.6646912000142,,244.58612779999385,5,244.6646912000142,244.6646912000142,0.06050079996930435,246.33764570002677,[0.215],[0.13666666666666666],[1],[0],[0],[1.6947605999885127],['target'],650536,001,2024-10-08_15h24.52.350,Session5_VisualSearch,2024.1.5,None,2024-10-08 15h25.01.999799 +0530,
117,0,117,0,246.46645659999922,,246.35361310001463,5,246.46645659999922,246.46645659999922,0.07221539999591187,248.55201390001457,[0.04666666666666667],[-0.13],[1],[0],[0],[2.1279581999988295],['target'],650536,001,2024-10-08_15h24.52.350,Session5_VisualSearch,2024.1.5,None,2024-10-08 15h25.01.999799 +0530,
118,0,118,0,248.6825383999967,,248.57192080002278,5,248.6825383999967,248.6825383999967,0.07589669997105375,250.70321200002218,[-0.26166666666666666],[0.285],[1],[0],[0],[2.0597067999769934],['target'],650536,001,2024-10-08_15h24.52.350,Session5_VisualSearch,2024.1.5,None,2024-10-08 15h25.01.999799 +0530,
119,0,119,0,250.8136080999975,,250.72034370002802,5,250.8136080999975,250.8136080999975,0.07239230000413954,252.6026574000134,[0.13333333333333333],[0.4166666666666667],[1],[0],[0],[1.813751499983482],['target'],650536,001,2024-10-08_15h24.52.350,Session5_VisualSearch,2024.1.5,None,2024-10-08 15h25.01.999799 +0530,
120,0,120,0,252.73138399998425,,252.62187470000936,5,252.73138399998425,252.73138399998425,0.07125840004300699,254.31773680000333,[-0.09],[0.2866666666666667],[1],[0],[0],[1.6263232000055723],['target'],650536,001,2024-10-08_15h24.52.350,Session5_VisualSearch,2024.1.5,None,2024-10-08 15h25.01.999799 +0530,
121,0,121,0,254.4631245000055,,254.33746120001888,10,254.4631245000055,254.4631245000055,0.09938609995879233,255.91496239998378,[0.115],[0.25333333333333335],[1],[0],[0],[1.4837785999989137],['target'],650536,001,2024-10-08_15h24.52.350,Session5_VisualSearch,2024.1.5,None,2024-10-08 15h25.01.999799 +0530,
122,0,122,0,256.0634126000223,,255.9258754000184,10,256.0634126000223,256.0634126000223,0.09167520003393292,257.6843926999718,[-0.12833333333333333],[0.305],[1],[0],[0],[1.6677965999697335],['target'],650536,001,2024-10-08_15h24.52.350,Session5_VisualSearch,2024.1.5,None,2024-10-08 15h25.01.999799 +0530,
123,0,123,0,257.7792924999958,,257.7035955999745,5,257.7792924999958,257.7792924999958,0.05870160000631586,260.76515270001255,[-0.34],[0.485],[1],[0],[0],[3.0072095999494195],['target'],650536,001,2024-10-08_15h24.52.350,Session5_VisualSearch,2024.1.5,None,2024-10-08 15h25.01.999799 +0530,
124,0,124,0,260.84604169998784,,260.7747818999924,5,260.84604169998784,260.84604169998784,0.048776499985251576,263.43402929999866,[0.20333333333333334],[-0.11166666666666666],[1],[0],[0],[2.611246399988886],['target'],650536,001,2024-10-08_15h24.52.350,Session5_VisualSearch,2024.1.5,None,2024-10-08 15h25.01.999799 +0530,
125,0,125,0,263.66368529998,,263.4500151000102,10,263.66368529998,263.66368529998,0.14436670002760366,265.08386499999324,[0.021666666666666667],[-0.12833333333333333],[1],[0],[0],[1.4925940000102855],['target'],650536,001,2024-10-08_15h24.52.350,Session5_VisualSearch,2024.1.5,None,2024-10-08 15h25.01.999799 +0530,
126,0,126,0,265.21309129998554,,265.09941099997377,5,265.21309129998554,265.21309129998554,0.0760084000066854,267.1170351000037,[-0.175],[0.4066666666666667],[1],[0],[0],[1.9452304999576882],['target'],650536,001,2024-10-08_15h24.52.350,Session5_VisualSearch,2024.1.5,None,2024-10-08 15h25.01.999799 +0530,
127,0,127,0,267.24684290000005,,267.13437019998673,5,267.24684290000005,267.24684290000005,0.07470840000314638,268.8348914000089,[-0.485],[0.018333333333333333],[1],[0],[0],[1.6293622000375763],['target'],650536,001,2024-10-08_15h24.52.350,Session5_VisualSearch,2024.1.5,None,2024-10-08 15h25.01.999799 +0530,
128,0,128,0,268.9447993999929,,268.85459719999926,5,268.9447993999929,268.9447993999929,0.07025710004381835,270.4829741999856,[0.22166666666666668],[0.405],[1],[0],[0],[1.5598549999995157],['target'],650536,001,2024-10-08_15h24.52.350,Session5_VisualSearch,2024.1.5,None,2024-10-08 15h25.01.999799 +0530,
129,0,129,0,270.67759450001176,,270.50096390000544,10,270.67759450001176,270.67759450001176,0.1394980000331998,272.76508049998665,[0.335],[-0.35833333333333334],[1],[0],[0],[2.1283948000054806],['target'],650536,001,2024-10-08_15h24.52.350,Session5_VisualSearch,2024.1.5,None,2024-10-08 15h25.01.999799 +0530,
130,0,130,0,272.8604255000246,,272.7813233999768,5,272.8604255000246,272.8604255000246,0.06369939999422058,274.39699209999526,[0.23166666666666666],[0.08166666666666667],[1],[0],[0],[1.556152299977839],['target'],650536,001,2024-10-08_15h24.52.350,Session5_VisualSearch,2024.1.5,None,2024-10-08 15h25.01.999799 +0530,
131,0,131,0,274.4605904999771,,274.40403159998823,5,274.4605904999771,274.4605904999771,0.03944209998007864,275.86570179997943,[0.008333333333333333],[0.14833333333333334],[1],[0],[0],[1.4227975000394508],['target'],650536,001,2024-10-08_15h24.52.350,Session5_VisualSearch,2024.1.5,None,2024-10-08 15h25.01.999799 +0530,
132,0,132,0,276.11211380001623,,275.8857728000148,10,276.11211380001623,276.11211380001623,0.15619000000879169,277.2317476000171,[-0.07333333333333333],[0.10833333333333334],[1],[0],[0],[1.1950101000256836],['target'],650536,001,2024-10-08_15h24.52.350,Session5_VisualSearch,2024.1.5,None,2024-10-08 15h25.01.999799 +0530,
133,0,133,0,277.36176080000587,,277.2515325000277,5,277.36176080000587,277.36176080000587,0.07611920003546402,278.7154432000243,[-0.38666666666666666],[0.08666666666666667],[1],[0],[0],[1.3922689000028186],['target'],650536,001,2024-10-08_15h24.52.350,Session5_VisualSearch,2024.1.5,None,2024-10-08 15h25.01.999799 +0530,
134,0,134,0,278.945566600014,,278.7316124999779,10,278.945566600014,278.945566600014,0.14212610002141446,280.7977993999957,[0.21333333333333335],[0.38166666666666665],[1],[0],[0],[1.9277720000245608],['target'],650536,001,2024-10-08_15h24.52.350,Session5_VisualSearch,2024.1.5,None,2024-10-08 15h25.01.999799 +0530,
135,0,135,0,280.9095084000146,,280.8159089999972,5,280.9095084000146,280.9095084000146,0.0715784999774769,283.2987432000227,[-0.12333333333333334],[-0.25666666666666665],[1],[0],[0],[2.413022099994123],['target'],650536,001,2024-10-08_15h24.52.350,Session5_VisualSearch,2024.1.5,None,2024-10-08 15h25.01.999799 +0530,
136,0,136,0,283.4275341000175,,283.3156762999715,5,283.4275341000175,283.4275341000175,0.07189189997734502,285.18144519999623,[-0.47],[-0.1],[1],[0],[0],[1.7961981000262313],['target'],650536,001,2024-10-08_15h24.52.350,Session5_VisualSearch,2024.1.5,None,2024-10-08 15h25.01.999799 +0530,
137,0,137,0,285.30881429999135,,285.2008935000049,5,285.30881429999135,285.30881429999135,0.0757420000154525,287.12864640000043,[0.085],[0.28833333333333333],[1],[0],[0],[1.855647299962584],['target'],650536,001,2024-10-08_15h24.52.350,Session5_VisualSearch,2024.1.5,None,2024-10-08 15h25.01.999799 +0530,
138,0,138,0,287.2092421000125,,287.1380266000051,5,287.2092421000125,287.2092421000125,0.04669250000733882,288.92856989998836,[-0.31666666666666665],[-0.16833333333333333],[1],[0],[0],[1.7448409000062384],['target'],650536,001,2024-10-08_15h24.52.350,Session5_VisualSearch,2024.1.5,None,2024-10-08 15h25.01.999799 +0530,
139,0,139,0,289.10928949998925,,288.940225999977,10,289.10928949998925,289.10928949998925,0.11220510001294315,291.0301817000145,[0.25833333333333336],[0.14833333333333334],[1],[0],[0],[1.9789094000007026],['target'],650536,001,2024-10-08_15h24.52.350,Session5_VisualSearch,2024.1.5,None,2024-10-08 15h25.01.999799 +0530,
140,0,140,0,291.2588735999889,,291.04965539998375,10,291.2588735999889,291.2588735999889,0.14689640002325177,294.1139258000185,[-0.49666666666666665],[0.135],[1],[0],[0],[2.920924099977128],['target'],650536,001,2024-10-08_15h24.52.350,Session5_VisualSearch,2024.1.5,None,2024-10-08 15h25.01.999799 +0530,
141,0,141,0,294.2433258999954,,294.1334549000021,5,294.2433258999954,294.2433258999954,0.07542720000492409,295.9634547000169,[0.3516666666666667],[0.2916666666666667],[1],[0],[0],[1.756773900007829],['target'],650536,001,2024-10-08_15h24.52.350,Session5_VisualSearch,2024.1.5,None,2024-10-08 15h25.01.999799 +0530,
142,0,142,0,296.1242924000253,,295.98573840002064,10,296.1242924000253,296.1242924000253,0.10996989998966455,297.5592415999854,[0.41333333333333333],[0.365],[1],[0],[0],[1.4666308999876492],['target'],650536,001,2024-10-08_15h24.52.350,Session5_VisualSearch,2024.1.5,None,2024-10-08 15h25.01.999799 +0530,
143,0,143,0,297.6741067999974,,297.56630990002304,10,297.6741067999974,297.6741067999974,0.07360890001291409,298.9763397999923,[0.19333333333333333],[0.4216666666666667],[1],[0],[0],[1.3371595999924466],['target'],650536,001,2024-10-08_15h24.52.350,Session5_VisualSearch,2024.1.5,None,2024-10-08 15h25.01.999799 +0530,
144,0,144,0,299.04062200000044,,298.9834182999912,5,299.04062200000044,299.04062200000044,0.03935729997465387,301.5292310999939,[-0.48833333333333334],[-0.33166666666666667],[1],[0],[0],[2.5067983000189997],['target'],650536,001,2024-10-08_15h24.52.350,Session5_VisualSearch,2024.1.5,None,2024-10-08 15h25.01.999799 +0530,
145,0,145,0,301.70705409999937,,301.5491662999848,10,301.70705409999937,301.70705409999937,0.136646400031168,305.06143240001984,[-0.335],[-0.375],[1],[0],[0],[3.3801300000050105],['target'],650536,001,2024-10-08_15h24.52.350,Session5_VisualSearch,2024.1.5,None,2024-10-08 15h25.01.999799 +0530,
146,0,146,0,305.3419705000124,,305.0819508000277,10,305.3419705000124,305.3419705000124,0.1546851000166498,307.8625921999919,[0.42833333333333334],[0.051666666666666666],[1],[0],[0],[2.6279332999838516],['target'],650536,001,2024-10-08_15h24.52.350,Session5_VisualSearch,2024.1.5,None,2024-10-08 15h25.01.999799 +0530,
147,0,147,0,308.0909945999738,,307.88206719997106,10,308.0909945999738,308.0909945999738,0.14813430001959205,311.14442399999825,[0.43166666666666664],[-0.16166666666666665],[1],[0],[0],[3.1164879000280052],['target'],650536,001,2024-10-08_15h24.52.350,Session5_VisualSearch,2024.1.5,None,2024-10-08 15h25.01.999799 +0530,
148,0,148,0,311.3917636999977,,311.1614997999859,10,311.3917636999977,311.3917636999977,0.15216290001990274,315.27631129999645,[-0.295],[-0.13833333333333334],[1],[0],[0],[3.9671464000130072],['target'],650536,001,2024-10-08_15h24.52.350,Session5_VisualSearch,2024.1.5,None,2024-10-08 15h25.01.999799 +0530,
149,0,149,0,315.3547007999732,,315.2865938000032,5,315.3547007999732,315.3547007999732,0.049007900001015514,316.7617834000266,[-0.0033333333333333335],[0.155],[1],[0],[0],[1.4277333000209183],['target'],650536,001,2024-10-08_15h24.52.350,Session5_VisualSearch,2024.1.5,None,2024-10-08 15h25.01.999799 +0530,
150,0,150,0,316.9215295999893,,316.7769717000192,10,316.9215295999893,316.9215295999893,0.10391849995357916,318.3568722999771,[-0.29833333333333334],[0.051666666666666666],[1],[0],[0],[1.478304799995385],['target'],650536,001,2024-10-08_15h24.52.350,Session5_VisualSearch,2024.1.5,None,2024-10-08 15h25.01.999799 +0530,
151,0,151,0,318.47112760000164,,318.363948800019,10,318.47112760000164,318.47112760000164,0.07470359996659681,321.2297278000042,[0.41],[-0.455],[1],[0],[0],[2.791252600029111],['target'],650536,001,2024-10-08_15h24.52.350,Session5_VisualSearch,2024.1.5,None,2024-10-08 15h25.01.999799 +0530,
152,0,152,0,321.33773259999,,321.2631501000142,5,321.33773259999,321.33773259999,0.05062439996981993,322.8262787000276,[-0.49833333333333335],[0.18],[1],[0],[0],[1.5168249999987893],['target'],650536,001,2024-10-08_15h24.52.350,Session5_VisualSearch,2024.1.5,None,2024-10-08 15h25.01.999799 +0530,
153,0,153,0,323.05432210001163,,322.843040000007,10,323.05432210001163,323.05432210001163,0.159376900002826,324.542707399989,[-0.4766666666666667],[-0.29833333333333334],[1],[0],[0],[1.544664500048384],['target'],650536,001,2024-10-08_15h24.52.350,Session5_VisualSearch,2024.1.5,None,2024-10-08 15h25.01.999799 +0530,
154,0,154,0,324.68929850001587,,324.56227350002155,5,324.68929850001587,324.68929850001587,0.07556189998285845,326.8436273999978,[-0.25],[0.285],[1],[0],[0],[2.2076823000097647],['target'],650536,001,2024-10-08_15h24.52.350,Session5_VisualSearch,2024.1.5,None,2024-10-08 15h25.01.999799 +0530,
155,0,155,0,326.9872703999863,,326.86431340000127,5,326.9872703999863,326.9872703999863,0.08359410002594814,328.70605620002607,[-0.49666666666666665],[0.4116666666666667],[1],[0],[0],[1.76053700002376],['target'],650536,001,2024-10-08_15h24.52.350,Session5_VisualSearch,2024.1.5,None,2024-10-08 15h25.01.999799 +0530,
156,0,156,0,328.7869559000246,,328.71738919999916,5,328.7869559000246,328.7869559000246,0.0423202000092715,330.44322239997564,[-0.3883333333333333],[-0.15333333333333332],[1],[0],[0],[1.6848102000076324],['target'],650536,001,2024-10-08_15h24.52.350,Session5_VisualSearch,2024.1.5,None,2024-10-08 15h25.01.999799 +0530,
157,0,157,0,330.5881430999725,,330.47517119999975,5,330.5881430999725,330.5881430999725,0.07241239998256788,331.9584781000158,[0.06],[0.23333333333333334],[1],[0],[0],[1.413216899964027],['target'],650536,001,2024-10-08_15h24.52.350,Session5_VisualSearch,2024.1.5,None,2024-10-08 15h25.01.999799 +0530,
158,0,158,0,332.20313699997496,,331.97748840000713,10,332.20313699997496,332.20313699997496,0.1645769000169821,335.8213489999762,[0.0033333333333333335],[-0.3433333333333333],[1],[0],[0],[3.6838215999887325],['target'],650536,001,2024-10-08_15h24.52.350,Session5_VisualSearch,2024.1.5,None,2024-10-08 15h25.01.999799 +0530,
159,0,159,0,335.8860987999942,,335.8288750000065,5,335.8860987999942,335.8860987999942,0.038283900008536875,337.42555470002117,[0.25],[0.175],[1],[0],[0],[1.5587874000193551],['target'],650536,001,2024-10-08_15h24.52.350,Session5_VisualSearch,2024.1.5,None,2024-10-08 15h25.01.999799 +0530,
160,0,160,0,337.6546627000207,,337.4417985000182,10,337.6546627000207,337.6546627000207,0.14580520003801212,340.14058870001463,[-0.3416666666666667],[-0.36833333333333335],[1],[0],[0],[2.555873300007079],['target'],650536,001,2024-10-08_15h24.52.350,Session5_VisualSearch,2024.1.5,None,2024-10-08 15h25.01.999799 +0530,
161,0,161,0,340.25169740000274,,340.1579941000091,5,340.25169740000274,340.25169740000274,0.07286770001519471,341.8405703000026,[0.2733333333333333],[0.12833333333333333],[1],[0],[0],[1.6136977999703959],['target'],650536,001,2024-10-08_15h24.52.350,Session5_VisualSearch,2024.1.5,None,2024-10-08 15h25.01.999799 +0530,
162,0,162,0,341.98525379999774,,341.86051139998017,10,341.98525379999774,341.98525379999774,0.0977588000241667,344.3736430000281,[-0.295],[0.44166666666666665],[1],[0],[0],[2.4184700999758206],['target'],650536,001,2024-10-08_15h24.52.350,Session5_VisualSearch,2024.1.5,None,2024-10-08 15h25.01.999799 +0530,
163,0,163,0,344.5035868000123,,344.391887100006,5,344.5035868000123,344.5035868000123,0.07825940003385767,347.220659899991,[-0.31166666666666665],[-0.32666666666666666],[1],[0],[0],[2.7572959000244737],['target'],650536,001,2024-10-08_15h24.52.350,Session5_VisualSearch,2024.1.5,None,2024-10-08 15h25.01.999799 +0530,
164,0,164,0,347.35126349999337,,347.2379409999703,10,347.35126349999337,347.35126349999337,0.07342850003624335,351.3745886000106,[0.35],[0.46166666666666667],[1],[0],[0],[4.065897100022994],['target'],650536,001,2024-10-08_15h24.52.350,Session5_VisualSearch,2024.1.5,None,2024-10-08 15h25.01.999799 +0530,
165,0,165,0,351.5338944999967,,351.39805810002144,5,351.5338944999967,351.5338944999967,0.11990769999101758,353.1879938999773,[0.3466666666666667],[0.455],[1],[0],[0],[1.676061500038486],['target'],650536,001,2024-10-08_15h24.52.350,Session5_VisualSearch,2024.1.5,None,2024-10-08 15h25.01.999799 +0530,
166,0,166,0,353.33356850000564,,353.20473880000645,10,353.33356850000564,353.33356850000564,0.08716090000234544,355.7701942999847,[0.41833333333333333],[0.31833333333333336],[1],[0],[0],[2.479447799967602],['target'],650536,001,2024-10-08_15h24.52.350,Session5_VisualSearch,2024.1.5,None,2024-10-08 15h25.01.999799 +0530,
167,0,167,0,355.8833199000219,,355.7796492999769,10,355.8833199000219,355.8833199000219,0.07870720000937581,357.353197599994,[0.14833333333333334],[0.12666666666666668],[1],[0],[0],[1.4964962000376545],['target'],650536,001,2024-10-08_15h24.52.350,Session5_VisualSearch,2024.1.5,None,2024-10-08 15h25.01.999799 +0530,
168,0,168,0,357.4167214999907,,357.36044209997635,5,357.4167214999907,357.4167214999907,0.03793829999631271,359.96898349997355,[-0.4666666666666667],[-0.051666666666666666],[1],[0],[0],[2.571328199992422],['target'],650536,001,2024-10-08_15h24.52.350,Session5_VisualSearch,2024.1.5,None,2024-10-08 15h25.01.999799 +0530,
169,0,169,0,360.1167660999927,,359.9860198000097,10,360.1167660999927,360.1167660999927,0.0990666999714449,362.50383960001636,[-0.205],[-0.305],[1],[0],[0],[2.4237015999970026],['target'],650536,001,2024-10-08_15h24.52.350,Session5_VisualSearch,2024.1.5,None,2024-10-08 15h25.01.999799 +0530,
170,0,170,0,362.6337933000177,,362.5206117000198,5,362.6337933000177,362.6337933000177,0.07794990000547841,364.8547411999898,[-0.295],[0.2733333333333333],[1],[0],[0],[2.2606070999754593],['target'],650536,001,2024-10-08_15h24.52.350,Session5_VisualSearch,2024.1.5,None,2024-10-08 15h25.01.999799 +0530,
171,0,171,0,364.9821780999773,,364.8733134000213,5,364.9821780999773,364.9821780999773,0.07415010000113398,366.8396980999969,[-0.425],[-0.46],[1],[0],[0],[1.894582699984312],['target'],650536,001,2024-10-08_15h24.52.350,Session5_VisualSearch,2024.1.5,None,2024-10-08 15h25.01.999799 +0530,
172,0,172,0,367.0667787999846,,366.85888219997287,10,367.0667787999846,367.0667787999846,0.14458660001400858,369.06726789998356,[0.09166666666666666],[0.435],[1],[0],[0],[2.0668583000078797],['target'],650536,001,2024-10-08_15h24.52.350,Session5_VisualSearch,2024.1.5,None,2024-10-08 15h25.01.999799 +0530,
173,0,173,0,369.13138650002657,,369.0746209999779,5,369.13138650002657,369.13138650002657,0.035952000005636364,370.45190599997295,[-0.0016666666666666668],[0.10833333333333334],[1],[0],[0],[1.3422104999772273],['target'],650536,001,2024-10-08_15h24.52.350,Session5_VisualSearch,2024.1.5,None,2024-10-08 15h25.01.999799 +0530,
174,0,174,0,370.5148335000267,,370.45982430002186,5,370.5148335000267,370.5148335000267,0.03797390003455803,371.76872469997033,[-0.37833333333333335],[0.08666666666666667],[1],[0],[0],[1.2718838000437245],['target'],650536,001,2024-10-08_15h24.52.350,Session5_VisualSearch,2024.1.5,None,2024-10-08 15h25.01.999799 +0530,
175,0,175,0,371.8983150999993,,371.77754699997604,10,371.8983150999993,371.8983150999993,0.08832139999140054,373.36990109999897,[-0.16833333333333333],[-0.15],[1],[0],[0],[1.5048839999944903],['target'],650536,001,2024-10-08_15h24.52.350,Session5_VisualSearch,2024.1.5,None,2024-10-08 15h25.01.999799 +0530,
176,0,176,0,373.5642404999817,,373.3890980000142,10,373.5642404999817,373.5642404999817,0.14386850001756102,375.8361431999947,[0.445],[0.2783333333333333],[1],[0],[0],[2.3069736000034027],['target'],650536,001,2024-10-08_15h24.52.350,Session5_VisualSearch,2024.1.5,None,2024-10-08 15h25.01.999799 +0530,
177,0,177,0,376.065326299984,,375.8529545000056,10,376.065326299984,376.065326299984,0.1469669999787584,377.6698210000177,[-0.10666666666666667],[-0.055],[1],[0],[0],[1.6739184000180103],['target'],650536,001,2024-10-08_15h24.52.350,Session5_VisualSearch,2024.1.5,None,2024-10-08 15h25.01.999799 +0530,
178,0,178,0,377.8973032999784,,377.6907097999938,10,377.8973032999784,377.8973032999784,0.14726820000214502,380.91991840000264,[-0.4],[-0.28833333333333333],[1],[0],[0],[3.0847884999820963],['target'],650536,001,2024-10-08_15h24.52.350,Session5_VisualSearch,2024.1.5,None,2024-10-08 15h25.01.999799 +0530,
179,0,179,0,381.0981656999793,,380.94153210002696,10,381.0981656999793,381.0981656999793,0.11882019997574389,382.91825970000355,[0.008333333333333333],[-0.25333333333333335],[1],[0],[0],[1.8614665999775752],['target'],650536,001,2024-10-08_15h24.52.350,Session5_VisualSearch,2024.1.5,None,2024-10-08 15h25.01.999799 +0530,
180,0,180,0,383.0128175999853,,382.93443449999904,5,383.0128175999853,383.0128175999853,0.06256389996269718,384.6845583000104,[0.335],[0.125],[1],[0],[0],[1.6908287999685854],['target'],650536,001,2024-10-08_15h24.52.350,Session5_VisualSearch,2024.1.5,None,2024-10-08 15h25.01.999799 +0530,
181,0,181,0,384.8132064000238,,384.6918267000001,10,384.8132064000238,384.8132064000238,0.0727877999888733,386.4175514000235,[-0.38],[0.195],[1],[0],[0],[1.6533342000329867],['target'],650536,001,2024-10-08_15h24.52.350,Session5_VisualSearch,2024.1.5,None,2024-10-08 15h25.01.999799 +0530,
182,0,182,0,386.64781390002463,,386.4340426999843,10,386.64781390002463,386.64781390002463,0.1449935000273399,388.5343255000189,[0.035],[0.4583333333333333],[1],[0],[0],[1.959424799948465],['target'],650536,001,2024-10-08_15h24.52.350,Session5_VisualSearch,2024.1.5,None,2024-10-08 15h25.01.999799 +0530,
183,0,183,0,388.6637247999897,,388.5503036999726,5,388.6637247999897,388.6637247999897,0.07723289995919913,390.1339243000257,[0.14166666666666666],[-0.17833333333333334],[1],[0],[0],[1.510276300017722],['target'],650536,001,2024-10-08_15h24.52.350,Session5_VisualSearch,2024.1.5,None,2024-10-08 15h25.01.999799 +0530,
184,0,184,0,390.36447259999113,,390.14968370000133,10,390.36447259999113,390.36447259999113,0.14526410005055368,392.5329729000223,[0.13833333333333334],[-0.4716666666666667],[1],[0],[0],[2.241504200035706],['target'],650536,001,2024-10-08_15h24.52.350,Session5_VisualSearch,2024.1.5,None,2024-10-08 15h25.01.999799 +0530,
185,0,185,0,392.66139259998454,,392.5524378999835,10,392.66139259998454,392.66139259998454,0.09232200001133606,394.89690260001225,[-0.335],[0.3383333333333333],[1],[0],[0],[2.2579086999758147],['target'],650536,001,2024-10-08_15h24.52.350,Session5_VisualSearch,2024.1.5,None,2024-10-08 15h25.01.999799 +0530,
186,0,186,0,394.9617540999898,,394.90432029997464,5,394.9617540999898,394.9617540999898,0.03887869999743998,396.947155700007,[0.3416666666666667],[-0.37166666666666665],[1],[0],[0],[2.004619700019248],['target'],650536,001,2024-10-08_15h24.52.350,Session5_VisualSearch,2024.1.5,None,2024-10-08 15h25.01.999799 +0530,
187,0,187,0,397.0612568000215,,396.95415950001916,10,397.0612568000215,397.0612568000215,0.07032230001641437,399.18273830000544,[0.375],[-0.37833333333333335],[1],[0],[0],[2.158646799973212],['target'],650536,001,2024-10-08_15h24.52.350,Session5_VisualSearch,2024.1.5,None,2024-10-08 15h25.01.999799 +0530,
188,0,188,0,399.41274519998115,,399.202839399979,10,399.41274519998115,399.41274519998115,0.14464569999836385,402.3847290999838,[0.27],[-0.17833333333333334],[1],[0],[0],[3.0399417000007816],['target'],650536,001,2024-10-08_15h24.52.350,Session5_VisualSearch,2024.1.5,None,2024-10-08 15h25.01.999799 +0530,
189,0,189,0,402.6124747999711,,402.4006864000112,10,402.6124747999711,402.6124747999711,0.14389760000631213,407.4167803999735,[0.19],[-0.385],[1],[0],[0],[4.875891799980309],['target'],650536,001,2024-10-08_15h24.52.350,Session5_VisualSearch,2024.1.5,None,2024-10-08 15h25.01.999799 +0530,
190,0,190,0,407.64467519999016,,407.43756839999696,10,407.64467519999016,407.64467519999016,0.1474387999624014,409.44782429997576,[0.295],[-0.19],[1],[0],[0],[1.8656031000427902],['target'],650536,001,2024-10-08_15h24.52.350,Session5_VisualSearch,2024.1.5,None,2024-10-08 15h25.01.999799 +0530,
191,0,191,0,409.5600344000268,,409.46355669997865,5,409.5600344000268,409.5600344000268,0.07045350002590567,411.7975153999869,[-0.0033333333333333335],[-0.13166666666666665],[1],[0],[0],[2.2671336000203155],['target'],650536,001,2024-10-08_15h24.52.350,Session5_VisualSearch,2024.1.5,None,2024-10-08 15h25.01.999799 +0530,
192,0,192,0,411.943113300018,,411.8076208999846,10,411.943113300018,411.943113300018,0.08998709998559207,413.69532300002174,[0.47],[0.03166666666666667],[1],[0],[0],[1.7996003000298515],['target'],650536,001,2024-10-08_15h24.52.350,Session5_VisualSearch,2024.1.5,None,2024-10-08 15h25.01.999799 +0530,
193,0,193,0,413.79304239997873,,413.7046189000248,5,413.79304239997873,413.79304239997873,0.050526300037745386,415.36180399998557,[0.04],[0.22833333333333333],[1],[0],[0],[1.6076902999775484],['target'],650536,001,2024-10-08_15h24.52.350,Session5_VisualSearch,2024.1.5,None,2024-10-08 15h25.01.999799 +0530,
194,0,194,0,415.442998500017,,415.37098000000697,5,415.442998500017,415.442998500017,0.04888080002274364,417.8467149999924,[-0.4266666666666667],[0.23166666666666666],[1],[0],[0],[2.4281713000382297],['target'],650536,001,2024-10-08_15h24.52.350,Session5_VisualSearch,2024.1.5,None,2024-10-08 15h25.01.999799 +0530,
195,0,195,0,417.9752945000073,,417.85688099998515,10,417.9752945000073,417.9752945000073,0.08645379997324198,421.2650570999831,[-0.07],[-0.23166666666666666],[1],[0],[0],[3.3236685000010766],['target'],650536,001,2024-10-08_15h24.52.350,Session5_VisualSearch,2024.1.5,None,2024-10-08 15h25.01.999799 +0530,
196,0,196,0,421.4597246000194,,421.28183589997934,10,421.4597246000194,421.4597246000194,0.14114389999303967,423.9979705999722,[0.44666666666666666],[-0.25666666666666665],[1],[0],[0],[2.5768527000327595],['target'],650536,001,2024-10-08_15h24.52.350,Session5_VisualSearch,2024.1.5,None,2024-10-08 15h25.01.999799 +0530,
197,0,197,0,424.1577383999829,,424.019152999972,10,424.1577383999829,424.1577383999829,0.11050239996984601,425.62758889998076,[0.16166666666666665],[0.09166666666666666],[1],[0],[0],[1.5001850000116974],['target'],650536,001,2024-10-08_15h24.52.350,Session5_VisualSearch,2024.1.5,None,2024-10-08 15h25.01.999799 +0530,
198,0,198,0,425.6910490000155,,425.6387146000052,5,425.6910490000155,425.6910490000155,0.033652300015091896,427.6943814000115,[-0.42833333333333334],[0.11333333333333333],[1],[0],[0],[2.0229808999574743],['target'],650536,001,2024-10-08_15h24.52.350,Session5_VisualSearch,2024.1.5,None,2024-10-08 15h25.01.999799 +0530,
199,0,199,0,427.8084727000096,,427.70785290002823,5,427.8084727000096,427.8084727000096,0.06998229998862371,429.38031879998744,[-0.09166666666666666],[0.125],[1],[0],[0],[1.6049169999896549],['target'],650536,001,2024-10-08_15h24.52.350,Session5_VisualSearch,2024.1.5,None,2024-10-08 15h25.01.999799 +0530,
