trials.thisRepN,trials.thisTrialN,trials.thisN,trials.thisIndex,thisRow.t,notes,trial.started,num_distr,Fixation.started,target.started,mouse.started,trial.stopped,mouse.x,mouse.y,mouse.leftButton,mouse.midButton,mouse.rightButton,mouse.time,mouse.clicked_name,participant,session,date,expName,psychopyVersion,frameRate,expStart,
0,0,0,0,0.322602200001711,,0.07035960000212071,10,0.322602200001711,0.322602200001711,0.2720824999996694,2.4264809000014793,[-0.23166666666666666],[-0.13166666666666665],[1],[0],[0],[2.1527287000026263],['target'],934200,001,2024-10-04_11h18.43.131,Session5_VisualSearch,2024.1.5,None,2024-10-04 11h18.51.765748 +0530,
1,0,1,0,2.5718024000016158,,2.447459400002117,5,2.5718024000016158,2.5718024000016158,0.08435710000048857,3.8414015999987896,[-0.36333333333333334],[-0.07],[1],[0],[0],[1.3117684999997437],['target'],934200,001,2024-10-04_11h18.43.131,Session5_VisualSearch,2024.1.5,None,2024-10-04 11h18.51.765748 +0530,
2,0,2,0,3.970134200000757,,3.857634500000131,5,3.970134200000757,3.970134200000757,0.07557260000248789,5.758294100000057,[0.3016666666666667],[0.475],[1],[0],[0],[1.8288705000013579],['target'],934200,001,2024-10-04_11h18.43.131,Session5_VisualSearch,2024.1.5,None,2024-10-04 11h18.51.765748 +0530,
3,0,3,0,5.903538900001877,,5.77732240000114,10,5.903538900001877,5.903538900001877,0.09828559999732533,8.523603500001627,[-0.33166666666666667],[0.17166666666666666],[1],[0],[0],[2.650371100000484],['target'],934200,001,2024-10-04_11h18.43.131,Session5_VisualSearch,2024.1.5,None,2024-10-04 11h18.51.765748 +0530,
4,0,4,0,8.754433800000697,,8.541238500001782,10,8.754433800000697,8.754433800000697,0.15583289999995031,10.141717499998776,[-0.24833333333333332],[-0.051666666666666666],[1],[0],[0],[1.4469731999997748],['target'],934200,001,2024-10-04_11h18.43.131,Session5_VisualSearch,2024.1.5,None,2024-10-04 11h18.51.765748 +0530,
5,0,5,0,10.302550399999745,,10.159982400000445,10,10.302550399999745,10.302550399999745,0.1073526000000129,12.22094030000153,[0.2966666666666667],[0.19833333333333333],[1],[0],[0],[1.9569926000003761],['target'],934200,001,2024-10-04_11h18.43.131,Session5_VisualSearch,2024.1.5,None,2024-10-04 11h18.51.765748 +0530,
6,0,6,0,12.28529360000175,,12.227794800000993,5,12.28529360000175,12.28529360000175,0.03736229999776697,13.73771889999989,[-0.23333333333333334],[-0.05],[1],[0],[0],[1.473317899999529],['target'],934200,001,2024-10-04_11h18.43.131,Session5_VisualSearch,2024.1.5,None,2024-10-04 11h18.51.765748 +0530,
7,0,7,0,13.819229000000632,,13.74641630000042,5,13.819229000000632,13.819229000000632,0.04805570000098669,16.153356300001178,[-0.2783333333333333],[0.46166666666666667],[1],[0],[0],[2.360295899998164],['target'],934200,001,2024-10-04_11h18.43.131,Session5_VisualSearch,2024.1.5,None,2024-10-04 11h18.51.765748 +0530,
8,0,8,0,16.201509099999384,,16.15814930000124,5,16.201509099999384,16.201509099999384,0.02770810000220081,18.056195500001195,[-0.051666666666666666],[-0.395],[1],[0],[0],[1.86999730000025],['target'],934200,001,2024-10-04_11h18.43.131,Session5_VisualSearch,2024.1.5,None,2024-10-04 11h18.51.765748 +0530,
9,0,9,0,18.285876500001905,,18.074415700000827,10,18.285876500001905,18.285876500001905,0.14799829999901704,19.55636719999893,[0.0033333333333333335],[-0.24666666666666667],[1],[0],[0],[1.3356535999992047],['target'],934200,001,2024-10-04_11h18.43.131,Session5_VisualSearch,2024.1.5,None,2024-10-04 11h18.51.765748 +0530,
10,0,10,0,19.78442730000097,,19.57540019999942,10,19.78442730000097,19.78442730000097,0.15479090000008,22.369765899999038,[-0.4266666666666667],[0.33166666666666667],[1],[0],[0],[2.6416514000011375],['target'],934200,001,2024-10-04_11h18.43.131,Session5_VisualSearch,2024.1.5,None,2024-10-04 11h18.51.765748 +0530,
11,0,11,0,22.550799700002244,,22.388110399999277,10,22.550799700002244,22.550799700002244,0.11486839999997756,25.388459699999657,[-0.315],[-0.2916666666666667],[1],[0],[0],[2.889504599999782],['target'],934200,001,2024-10-04_11h18.43.131,Session5_VisualSearch,2024.1.5,None,2024-10-04 11h18.51.765748 +0530,
12,0,12,0,25.483297400001902,,25.40471040000193,10,25.483297400001902,25.483297400001902,0.06039199999941047,29.119157000000996,[-0.305],[0.27666666666666667],[1],[0],[0],[3.6579625999984273],['target'],934200,001,2024-10-04_11h18.43.131,Session5_VisualSearch,2024.1.5,None,2024-10-04 11h18.51.765748 +0530,
13,0,13,0,29.233193300002313,,29.127396800002316,10,29.233193300002313,29.233193300002313,0.07295820000217645,30.8018985000017,[-0.405],[-0.285],[1],[0],[0],[1.6028078000017558],['target'],934200,001,2024-10-04_11h18.43.131,Session5_VisualSearch,2024.1.5,None,2024-10-04 11h18.51.765748 +0530,
14,0,14,0,30.899500399998942,,30.80932870000106,10,30.899500399998942,30.899500399998942,0.06699599999774364,35.221598600001016,[-0.365],[0.25],[1],[0],[0],[4.345908700001019],['target'],934200,001,2024-10-04_11h18.43.131,Session5_VisualSearch,2024.1.5,None,2024-10-04 11h18.51.765748 +0530,
15,0,15,0,35.315488399999595,,35.24161380000078,5,35.315488399999595,35.315488399999595,0.05482610000035493,36.97312049999891,[-0.4816666666666667],[0.295],[1],[0],[0],[1.679804499999591],['target'],934200,001,2024-10-04_11h18.43.131,Session5_VisualSearch,2024.1.5,None,2024-10-04 11h18.51.765748 +0530,
16,0,16,0,37.100099899998895,,36.99302000000171,5,37.100099899998895,37.100099899998895,0.07701129999986733,38.36981480000031,[-0.40166666666666667],[0.27666666666666667],[1],[0],[0],[1.303274699999747],['target'],934200,001,2024-10-04_11h18.43.131,Session5_VisualSearch,2024.1.5,None,2024-10-04 11h18.51.765748 +0530,
17,0,17,0,38.53189940000084,,38.38811759999953,10,38.53189940000084,38.53189940000084,0.11085969999840017,40.30369789999895,[0.385],[0.32166666666666666],[1],[0],[0],[1.8066272000032768],['target'],934200,001,2024-10-04_11h18.43.131,Session5_VisualSearch,2024.1.5,None,2024-10-04 11h18.51.765748 +0530,
18,0,18,0,40.49826649999886,,40.31995960000131,10,40.49826649999886,40.49826649999886,0.1469929000013508,42.003349000002345,[0.22666666666666666],[0.16833333333333333],[1],[0],[0],[1.540408100001514],['target'],934200,001,2024-10-04_11h18.43.131,Session5_VisualSearch,2024.1.5,None,2024-10-04 11h18.51.765748 +0530,
19,0,19,0,42.2331359000018,,42.02257079999981,10,42.2331359000018,42.2331359000018,0.14118520000192802,44.28555839999899,[0.5],[0.37833333333333335],[1],[0],[0],[2.1258679000020493],['target'],934200,001,2024-10-04_11h18.43.131,Session5_VisualSearch,2024.1.5,None,2024-10-04 11h18.51.765748 +0530,
20,0,20,0,44.41419769999993,,44.295020900000964,10,44.41419769999993,44.41419769999993,0.09279199999946286,46.26702139999907,[-0.285],[0.065],[1],[0],[0],[1.8805277999999817],['target'],934200,001,2024-10-04_11h18.43.131,Session5_VisualSearch,2024.1.5,None,2024-10-04 11h18.51.765748 +0530,
21,0,21,0,46.33101650000026,,46.27409049999915,5,46.33101650000026,46.33101650000026,0.037916600002063205,47.886104600002,[-0.18166666666666667],[-0.425],[1],[0],[0],[1.5746824000016204],['target'],934200,001,2024-10-04_11h18.43.131,Session5_VisualSearch,2024.1.5,None,2024-10-04 11h18.51.765748 +0530,
22,0,22,0,47.99837970000226,,47.9002545000003,5,47.99837970000226,47.99837970000226,0.0640203000002657,49.53863900000215,[-0.035],[0.24166666666666667],[1],[0],[0],[1.577086599998438],['target'],934200,001,2024-10-04_11h18.43.131,Session5_VisualSearch,2024.1.5,None,2024-10-04 11h18.51.765748 +0530,
23,0,23,0,49.73064870000235,,49.55494109999927,10,49.73064870000235,49.73064870000235,0.14144490000035148,53.31748739999966,[0.065],[0.47833333333333333],[1],[0],[0],[3.6229206999996677],['target'],934200,001,2024-10-04_11h18.43.131,Session5_VisualSearch,2024.1.5,None,2024-10-04 11h18.51.765748 +0530,
24,0,24,0,53.46306170000025,,53.33298189999914,10,53.46306170000025,53.46306170000025,0.10786709999956656,55.46512839999923,[0.36333333333333334],[0.17666666666666667],[1],[0],[0],[2.0279128000001947],['target'],934200,001,2024-10-04_11h18.43.131,Session5_VisualSearch,2024.1.5,None,2024-10-04 11h18.51.765748 +0530,
25,0,25,0,55.57997429999887,,55.47344019999946,10,55.57997429999887,55.57997429999887,0.07440560000031837,57.68176260000109,[0.018333333333333333],[-0.12333333333333334],[1],[0],[0],[2.135192100002314],['target'],934200,001,2024-10-04_11h18.43.131,Session5_VisualSearch,2024.1.5,None,2024-10-04 11h18.51.765748 +0530,
26,0,26,0,57.74598930000138,,57.68966,5,57.74598930000138,57.74598930000138,0.038202399999136105,59.41849319999892,[0.42833333333333334],[0.29833333333333334],[1],[0],[0],[1.6916428999975324],['target'],934200,001,2024-10-04_11h18.43.131,Session5_VisualSearch,2024.1.5,None,2024-10-04 11h18.51.765748 +0530,
27,0,27,0,59.54822799999965,,59.43675989999974,5,59.54822799999965,59.54822799999965,0.0740183000016259,61.801281399999425,[-0.325],[-0.46166666666666667],[1],[0],[0],[2.2922840999999607],['target'],934200,001,2024-10-04_11h18.43.131,Session5_VisualSearch,2024.1.5,None,2024-10-04 11h18.51.765748 +0530,
28,0,28,0,62.029593600000226,,61.81722649999938,10,62.029593600000226,62.029593600000226,0.15083940000113216,64.71738360000018,[0.36333333333333334],[-0.4083333333333333],[1],[0],[0],[2.7532430999999633],['target'],934200,001,2024-10-04_11h18.43.131,Session5_VisualSearch,2024.1.5,None,2024-10-04 11h18.51.765748 +0530,
29,0,29,0,64.94724670000141,,64.73524560000078,10,64.94724670000141,64.94724670000141,0.14404099999956088,70.05048679999891,[-0.008333333333333333],[-0.058333333333333334],[1],[0],[0],[5.173226400002022],['target'],934200,001,2024-10-04_11h18.43.131,Session5_VisualSearch,2024.1.5,None,2024-10-04 11h18.51.765748 +0530,
30,0,30,0,70.17910570000095,,70.0687050000015,5,70.17910570000095,70.17910570000095,0.07472530000086408,71.4998497000015,[-0.15833333333333333],[-0.29333333333333333],[1],[0],[0],[1.3581369999992603],['target'],934200,001,2024-10-04_11h18.43.131,Session5_VisualSearch,2024.1.5,None,2024-10-04 11h18.51.765748 +0530,
31,0,31,0,71.62904580000031,,71.51640749999933,5,71.62904580000031,71.62904580000031,0.07433739999760292,73.05038490000152,[-0.36833333333333335],[0.345],[1],[0],[0],[1.4622849000006681],['target'],934200,001,2024-10-04_11h18.43.131,Session5_VisualSearch,2024.1.5,None,2024-10-04 11h18.51.765748 +0530,
32,0,32,0,73.16086830000131,,73.0687055999988,5,73.16086830000131,73.16086830000131,0.0644081999998889,74.86654410000119,[-0.10666666666666667],[-0.013333333333333334],[1],[0],[0],[1.7344640999981493],['target'],934200,001,2024-10-04_11h18.43.131,Session5_VisualSearch,2024.1.5,None,2024-10-04 11h18.51.765748 +0530,
33,0,33,0,75.0944034000022,,74.8849009000005,10,75.0944034000022,75.0944034000022,0.15425390000018524,77.63415430000168,[-0.29833333333333334],[-0.28833333333333333],[1],[0],[0],[2.596930899999279],['target'],934200,001,2024-10-04_11h18.43.131,Session5_VisualSearch,2024.1.5,None,2024-10-04 11h18.51.765748 +0530,
34,0,34,0,77.74366650000229,,77.6512287000005,10,77.74366650000229,77.74366650000229,0.06776820000231965,80.13126740000007,[0.13833333333333334],[0.39666666666666667],[1],[0],[0],[2.415029899999354],['target'],934200,001,2024-10-04_11h18.43.131,Session5_VisualSearch,2024.1.5,None,2024-10-04 11h18.51.765748 +0530,
35,0,35,0,80.26105380000081,,80.14751070000057,5,80.26105380000081,80.26105380000081,0.07565450000038254,81.76388940000106,[-0.3933333333333333],[0.38666666666666666],[1],[0],[0],[1.5447404000005918],['target'],934200,001,2024-10-04_11h18.43.131,Session5_VisualSearch,2024.1.5,None,2024-10-04 11h18.51.765748 +0530,
36,0,36,0,81.89445830000113,,81.78190000000177,5,81.89445830000113,81.89445830000113,0.07486699999935809,83.48249620000206,[-0.34833333333333333],[0.08333333333333333],[1],[0],[0],[1.6300635000006878],['target'],934200,001,2024-10-04_11h18.43.131,Session5_VisualSearch,2024.1.5,None,2024-10-04 11h18.51.765748 +0530,
37,0,37,0,83.64293620000171,,83.50311290000172,10,83.64293620000171,83.64293620000171,0.11039549999986775,87.01179150000098,[-0.44],[0.4766666666666667],[1],[0],[0],[3.4010840999981156],['target'],934200,001,2024-10-04_11h18.43.131,Session5_VisualSearch,2024.1.5,None,2024-10-04 11h18.51.765748 +0530,
38,0,38,0,87.09255150000172,,87.02285960000154,5,87.09255150000172,87.09255150000172,0.049614899999141926,88.99665920000189,[-0.375],[0.3616666666666667],[1],[0],[0],[1.9276453999991645],['target'],934200,001,2024-10-04_11h18.43.131,Session5_VisualSearch,2024.1.5,None,2024-10-04 11h18.51.765748 +0530,
39,0,39,0,89.09194610000122,,89.00408550000066,10,89.09194610000122,89.09194610000122,0.06640970000080415,91.76502809999874,[0.355],[-0.4583333333333333],[1],[0],[0],[2.695064999999886],['target'],934200,001,2024-10-04_11h18.43.131,Session5_VisualSearch,2024.1.5,None,2024-10-04 11h18.51.765748 +0530,
40,0,40,0,91.9936555000022,,91.78304420000131,10,91.9936555000022,91.9936555000022,0.1453244000003906,94.98166380000112,[0.475],[-0.4],[1],[0],[0],[3.055082599999878],['target'],934200,001,2024-10-04_11h18.43.131,Session5_VisualSearch,2024.1.5,None,2024-10-04 11h18.51.765748 +0530,
41,0,41,0,95.12790060000043,,95.00425589999941,5,95.12790060000043,95.12790060000043,0.07430240000030608,96.88169259999995,[-0.06666666666666667],[-0.12166666666666667],[1],[0],[0],[1.8056030000007013],['target'],934200,001,2024-10-04_11h18.43.131,Session5_VisualSearch,2024.1.5,None,2024-10-04 11h18.51.765748 +0530,
42,0,42,0,97.0075508000009,,96.89998689999993,10,97.0075508000009,97.0075508000009,0.08644599999752245,99.3113482000008,[0.4583333333333333],[-0.01],[1],[0],[0],[2.3267323000000033],['target'],934200,001,2024-10-04_11h18.43.131,Session5_VisualSearch,2024.1.5,None,2024-10-04 11h18.51.765748 +0530,
43,0,43,0,99.47429969999939,,99.32709930000055,10,99.47429969999939,99.47429969999939,0.11375989999942249,101.27577670000028,[-0.365],[0.07166666666666667],[1],[0],[0],[1.83900580000045],['target'],934200,001,2024-10-04_11h18.43.131,Session5_VisualSearch,2024.1.5,None,2024-10-04 11h18.51.765748 +0530,
44,0,44,0,101.3405711000014,,101.2828937000013,5,101.3405711000014,101.3405711000014,0.037853800000448246,103.57648730000074,[0.4816666666666667],[-0.03166666666666667],[1],[0],[0],[2.256604599999264],['target'],934200,001,2024-10-04_11h18.43.131,Session5_VisualSearch,2024.1.5,None,2024-10-04 11h18.51.765748 +0530,
45,0,45,0,103.64034460000039,,103.5829862999999,5,103.64034460000039,103.64034460000039,0.037338599999202415,107.02776409999933,[0.27166666666666667],[-0.3416666666666667],[1],[0],[0],[3.4076091999995697],['target'],934200,001,2024-10-04_11h18.43.131,Session5_VisualSearch,2024.1.5,None,2024-10-04 11h18.51.765748 +0530,
46,0,46,0,107.27519329999996,,107.04274720000103,10,107.27519329999996,107.27519329999996,0.1454568000008294,110.12516229999892,[0.4083333333333333],[0.22166666666666668],[1],[0],[0],[2.9407348000022466],['target'],934200,001,2024-10-04_11h18.43.131,Session5_VisualSearch,2024.1.5,None,2024-10-04 11h18.51.765748 +0530,
47,0,47,0,110.23913650000031,,110.13428610000119,10,110.23913650000031,110.23913650000031,0.08182169999781763,113.00827750000099,[-0.12],[0.011666666666666667],[1],[0],[0],[2.7935141999987536],['target'],934200,001,2024-10-04_11h18.43.131,Session5_VisualSearch,2024.1.5,None,2024-10-04 11h18.51.765748 +0530,
48,0,48,0,113.12226740000187,,113.01547449999998,10,113.12226740000187,113.12226740000187,0.0666099000009126,116.40743189999921,[0.45],[0.22833333333333333],[1],[0],[0],[3.326135700001032],['target'],934200,001,2024-10-04_11h18.43.131,Session5_VisualSearch,2024.1.5,None,2024-10-04 11h18.51.765748 +0530,
49,0,49,0,116.48869220000051,,116.41761570000017,5,116.48869220000051,116.48869220000051,0.050706400001217844,118.6964337999998,[-0.16666666666666666],[0.465],[1],[0],[0],[2.2296774000024016],['target'],934200,001,2024-10-04_11h18.43.131,Session5_VisualSearch,2024.1.5,None,2024-10-04 11h18.51.765748 +0530,
50,0,50,0,118.87204199999906,,118.73229039999933,10,118.87204199999906,118.87204199999906,0.11801009999908274,120.6585355999996,[0.17166666666666666],[-0.355],[1],[0],[0],[1.8151232000018354],['target'],934200,001,2024-10-04_11h18.43.131,Session5_VisualSearch,2024.1.5,None,2024-10-04 11h18.51.765748 +0530,
51,0,51,0,120.78934080000181,,120.67426500000147,5,120.78934080000181,120.78934080000181,0.07329009999739355,121.9946282000019,[0.32166666666666666],[-0.025],[1],[0],[0],[1.2509871999973257],['target'],934200,001,2024-10-04_11h18.43.131,Session5_VisualSearch,2024.1.5,None,2024-10-04 11h18.51.765748 +0530,
52,0,52,0,122.10471609999877,,122.00997450000068,5,122.10471609999877,122.10471609999877,0.07079970000268077,123.84320370000205,[0.17166666666666666],[0.26666666666666666],[1],[0],[0],[1.7642444000011892],['target'],934200,001,2024-10-04_11h18.43.131,Session5_VisualSearch,2024.1.5,None,2024-10-04 11h18.51.765748 +0530,
53,0,53,0,123.97259190000113,,123.86032030000206,5,123.97259190000113,123.97259190000113,0.07435769999938202,125.47516879999966,[-0.18166666666666667],[-0.125],[1],[0],[0],[1.5442379000014625],['target'],934200,001,2024-10-04_11h18.43.131,Session5_VisualSearch,2024.1.5,None,2024-10-04 11h18.51.765748 +0530,
54,0,54,0,125.68780390000029,,125.49092400000154,10,125.68780390000029,125.68780390000029,0.14618410000184667,127.42261900000085,[-0.095],[-0.4266666666666667],[1],[0],[0],[1.7893594000015582],['target'],934200,001,2024-10-04_11h18.43.131,Session5_VisualSearch,2024.1.5,None,2024-10-04 11h18.51.765748 +0530,
55,0,55,0,127.52035470000192,,127.42991540000003,10,127.52035470000192,127.52035470000192,0.06405590000213124,129.60626740000225,[0.405],[-0.2],[1],[0],[0],[2.1134500000007392],['target'],934200,001,2024-10-04_11h18.43.131,Session5_VisualSearch,2024.1.5,None,2024-10-04 11h18.51.765748 +0530,
56,0,56,0,129.6703297999993,,129.61376780000137,5,129.6703297999993,129.6703297999993,0.03951240000242251,131.827092800002,[-0.11833333333333333],[0.13833333333333334],[1],[0],[0],[2.1743443999985175],['target'],934200,001,2024-10-04_11h18.43.131,Session5_VisualSearch,2024.1.5,None,2024-10-04 11h18.51.765748 +0530,
57,0,57,0,132.0553308999988,,131.84291550000125,10,132.0553308999988,132.0553308999988,0.13887709999835351,133.82641870000225,[0.12666666666666668],[0.095],[1],[0],[0],[1.8459696999998414],['target'],934200,001,2024-10-04_11h18.43.131,Session5_VisualSearch,2024.1.5,None,2024-10-04 11h18.51.765748 +0530,
58,0,58,0,134.01984630000152,,133.84374630000093,10,134.01984630000152,134.01984630000152,0.1372510000001057,135.92476449999958,[-0.15166666666666667],[0.345],[1],[0],[0],[1.945386100000178],['target'],934200,001,2024-10-04_11h18.43.131,Session5_VisualSearch,2024.1.5,None,2024-10-04 11h18.51.765748 +0530,
59,0,59,0,136.05428820000088,,135.94174030000067,5,136.05428820000088,136.05428820000088,0.07309750000058557,137.55733999999939,[-0.3416666666666667],[0.32166666666666666],[1],[0],[0],[1.5471305999999458],['target'],934200,001,2024-10-04_11h18.43.131,Session5_VisualSearch,2024.1.5,None,2024-10-04 11h18.51.765748 +0530,
60,0,60,0,137.78725760000088,,137.57386079999924,10,137.78725760000088,137.78725760000088,0.14390350000030594,139.14044990000184,[0.11166666666666666],[0.3383333333333333],[1],[0],[0],[1.4265931000009004],['target'],934200,001,2024-10-04_11h18.43.131,Session5_VisualSearch,2024.1.5,None,2024-10-04 11h18.51.765748 +0530,
61,0,61,0,139.27058699999907,,139.15709830000196,5,139.27058699999907,139.27058699999907,0.07480389999909676,142.4923631999991,[-0.37],[0.425],[1],[0],[0],[3.264703600001667],['target'],934200,001,2024-10-04_11h18.43.131,Session5_VisualSearch,2024.1.5,None,2024-10-04 11h18.51.765748 +0530,
62,0,62,0,142.72018899999966,,142.50885779999953,10,142.72018899999966,142.72018899999966,0.13888919999953941,144.2535538000011,[0.19666666666666666],[0.22166666666666668],[1],[0],[0],[1.6088959999979124],['target'],934200,001,2024-10-04_11h18.43.131,Session5_VisualSearch,2024.1.5,None,2024-10-04 11h18.51.765748 +0530,
63,0,63,0,144.31829479999942,,144.2605317000016,5,144.31829479999942,144.31829479999942,0.03704909999942174,146.02127780000228,[-0.13],[0.37],[1],[0],[0],[1.7244647000006808],['target'],934200,001,2024-10-04_11h18.43.131,Session5_VisualSearch,2024.1.5,None,2024-10-04 11h18.51.765748 +0530,
64,0,64,0,146.16834440000093,,146.0299914999996,10,146.16834440000093,146.16834440000093,0.0923917000000074,148.4528520999993,[0.37166666666666665],[-0.18833333333333332],[1],[0],[0],[2.3316524000001664],['target'],934200,001,2024-10-04_11h18.43.131,Session5_VisualSearch,2024.1.5,None,2024-10-04 11h18.51.765748 +0530,
65,0,65,0,148.63472900000124,,148.4585154000015,10,148.63472900000124,148.63472900000124,0.14200529999652645,150.3198040999996,[-0.12166666666666667],[0.03333333333333333],[1],[0],[0],[1.7197672000002058],['target'],934200,001,2024-10-04_11h18.43.131,Session5_VisualSearch,2024.1.5,None,2024-10-04 11h18.51.765748 +0530,
66,0,66,0,150.41924590000053,,150.32680800000162,10,150.41924590000053,150.41924590000053,0.05855840000003809,153.60531579999952,[-0.07166666666666667],[0.26666666666666666],[1],[0],[0],[3.220348400001967],['target'],934200,001,2024-10-04_11h18.43.131,Session5_VisualSearch,2024.1.5,None,2024-10-04 11h18.51.765748 +0530,
67,0,67,0,153.83508450000227,,153.6223855999997,10,153.83508450000227,153.83508450000227,0.1460142000032647,160.58521069999915,[0.14166666666666666],[0.25833333333333336],[1],[0],[0],[6.821690600001602],['target'],934200,001,2024-10-04_11h18.43.131,Session5_VisualSearch,2024.1.5,None,2024-10-04 11h18.51.765748 +0530,
68,0,68,0,160.69963439999992,,160.59256540000206,10,160.69963439999992,160.69963439999992,0.06921209999927669,162.75556150000193,[-0.21166666666666667],[-0.065],[1],[0],[0],[2.0941469999997935],['target'],934200,001,2024-10-04_11h18.43.131,Session5_VisualSearch,2024.1.5,None,2024-10-04 11h18.51.765748 +0530,
69,0,69,0,162.93293339999946,,162.77098589999878,10,162.93293339999946,162.93293339999946,0.1259226000001945,165.86845520000134,[0.3983333333333333],[-0.125],[1],[0],[0],[2.9737342999978864],['target'],934200,001,2024-10-04_11h18.43.131,Session5_VisualSearch,2024.1.5,None,2024-10-04 11h18.51.765748 +0530,
70,0,70,0,165.96585160000177,,165.87873509999918,5,165.96585160000177,165.96585160000177,0.05037050000100862,167.8200982999988,[-0.135],[0.45166666666666666],[1],[0],[0],[1.8920903999969596],['target'],934200,001,2024-10-04_11h18.43.131,Session5_VisualSearch,2024.1.5,None,2024-10-04 11h18.51.765748 +0530,
71,0,71,0,168.05026540000108,,167.8381690999995,10,168.05026540000108,168.05026540000108,0.1426105999998981,171.11931840000034,[-0.26166666666666666],[0.465],[1],[0],[0],[3.142570500000147],['target'],934200,001,2024-10-04_11h18.43.131,Session5_VisualSearch,2024.1.5,None,2024-10-04 11h18.51.765748 +0530,
72,0,72,0,171.2500927000001,,171.13515259999986,5,171.2500927000001,171.2500927000001,0.07702839999910793,172.87177720000182,[-0.39],[0.07166666666666667],[1],[0],[0],[1.6632300999990548],['target'],934200,001,2024-10-04_11h18.43.131,Session5_VisualSearch,2024.1.5,None,2024-10-04 11h18.51.765748 +0530,
73,0,73,0,172.99885260000156,,172.89044730000023,5,172.99885260000156,172.99885260000156,0.07264280000163126,175.45219680000082,[0.44],[0.3616666666666667],[1],[0],[0],[2.491533000000345],['target'],934200,001,2024-10-04_11h18.43.131,Session5_VisualSearch,2024.1.5,None,2024-10-04 11h18.51.765748 +0530,
74,0,74,0,175.59920179999972,,175.47472850000122,5,175.59920179999972,175.59920179999972,0.08512719999998808,177.48636510000142,[0.40166666666666667],[0.24166666666666667],[1],[0],[0],[1.9315156000011484],['target'],934200,001,2024-10-04_11h18.43.131,Session5_VisualSearch,2024.1.5,None,2024-10-04 11h18.51.765748 +0530,
75,0,75,0,177.61500829999932,,177.50747300000148,5,177.61500829999932,177.61500829999932,0.07469440000204486,179.51881589999903,[0.48],[-0.23166666666666666],[1],[0],[0],[1.9436313999976846],['target'],934200,001,2024-10-04_11h18.43.131,Session5_VisualSearch,2024.1.5,None,2024-10-04 11h18.51.765748 +0530,
76,0,76,0,179.64821660000234,,179.54226100000233,5,179.64821660000234,179.64821660000234,0.07298029999947175,181.41785710000113,[-0.056666666666666664],[-0.325],[1],[0],[0],[1.807452999997622],['target'],934200,001,2024-10-04_11h18.43.131,Session5_VisualSearch,2024.1.5,None,2024-10-04 11h18.51.765748 +0530,
77,0,77,0,181.53125160000127,,181.4314931000008,5,181.53125160000127,181.53125160000127,0.06565599999885308,183.41688559999966,[-0.37333333333333335],[-0.16333333333333333],[1],[0],[0],[1.9233582000015303],['target'],934200,001,2024-10-04_11h18.43.131,Session5_VisualSearch,2024.1.5,None,2024-10-04 11h18.51.765748 +0530,
78,0,78,0,183.51373090000197,,183.42798480000056,5,183.51373090000197,183.51373090000197,0.05725730000267504,185.46650320000117,[-0.31833333333333336],[0.245],[1],[0],[0],[1.9825831000016478],['target'],934200,001,2024-10-04_11h18.43.131,Session5_VisualSearch,2024.1.5,None,2024-10-04 11h18.51.765748 +0530,
79,0,79,0,185.5810573000017,,185.47785940000176,5,185.5810573000017,185.5810573000017,0.05772620000061579,187.3505077000009,[-0.0016666666666666668],[0.37],[1],[0],[0],[1.816419800001313],['target'],934200,001,2024-10-04_11h18.43.131,Session5_VisualSearch,2024.1.5,None,2024-10-04 11h18.51.765748 +0530,
80,0,80,0,187.58104380000077,,187.3679430000011,10,187.58104380000077,187.58104380000077,0.16083069999876898,190.53406320000067,[0.49],[-0.45166666666666666],[1],[0],[0],[3.0094030000000203],['target'],934200,001,2024-10-04_11h18.43.131,Session5_VisualSearch,2024.1.5,None,2024-10-04 11h18.51.765748 +0530,
81,0,81,0,190.66237190000174,,190.55001560000164,5,190.66237190000174,190.66237190000174,0.08631669999886071,193.25023539999893,[0.39],[0.11833333333333333],[1],[0],[0],[2.6176591999974335],['target'],934200,001,2024-10-04_11h18.43.131,Session5_VisualSearch,2024.1.5,None,2024-10-04 11h18.51.765748 +0530,
82,0,82,0,193.3797990000021,,193.26654640000197,5,193.3797990000021,193.3797990000021,0.07545480000044336,195.69893180000145,[-0.051666666666666666],[0.10166666666666667],[1],[0],[0],[2.3605647000003955],['target'],934200,001,2024-10-04_11h18.43.131,Session5_VisualSearch,2024.1.5,None,2024-10-04 11h18.51.765748 +0530,
83,0,83,0,195.82975850000003,,195.71724620000168,5,195.82975850000003,195.82975850000003,0.07502150000073016,197.63561670000126,[0.3466666666666667],[-0.4066666666666667],[1],[0],[0],[1.8499781000027724],['target'],934200,001,2024-10-04_11h18.43.131,Session5_VisualSearch,2024.1.5,None,2024-10-04 11h18.51.765748 +0530,
84,0,84,0,197.84592460000204,,197.6511767000011,10,197.84592460000204,197.84592460000204,0.13863649999984773,200.66337130000102,[-0.37666666666666665],[-0.43833333333333335],[1],[0],[0],[2.875897399997484],['target'],934200,001,2024-10-04_11h18.43.131,Session5_VisualSearch,2024.1.5,None,2024-10-04 11h18.51.765748 +0530,
85,0,85,0,200.74427690000084,,200.67561679999926,5,200.74427690000084,200.74427690000084,0.04800919999979669,202.64616820000083,[-0.09166666666666666],[-0.3616666666666667],[1],[0],[0],[1.9241827000005287],['target'],934200,001,2024-10-04_11h18.43.131,Session5_VisualSearch,2024.1.5,None,2024-10-04 11h18.51.765748 +0530,
86,0,86,0,202.71151350000218,,202.65357310000036,5,202.71151350000218,202.71151350000218,0.0386069000014686,204.69953460000033,[-0.155],[-0.13833333333333334],[1],[0],[0],[2.0076172000008228],['target'],934200,001,2024-10-04_11h18.43.131,Session5_VisualSearch,2024.1.5,None,2024-10-04 11h18.51.765748 +0530,
87,0,87,0,204.92897590000211,,204.717092400002,10,204.92897590000211,204.92897590000211,0.1463551999986521,208.36440270000094,[0.42833333333333334],[0.37833333333333335],[1],[0],[0],[3.50306030000138],['target'],934200,001,2024-10-04_11h18.43.131,Session5_VisualSearch,2024.1.5,None,2024-10-04 11h18.51.765748 +0530,
88,0,88,0,208.4951817000001,,208.38151819999985,5,208.4951817000001,208.4951817000001,0.0760573999978078,211.164647900001,[0.0016666666666666668],[0.455],[1],[0],[0],[2.711163400002988],['target'],934200,001,2024-10-04_11h18.43.131,Session5_VisualSearch,2024.1.5,None,2024-10-04 11h18.51.765748 +0530,
89,0,89,0,211.39480829999957,,211.18052460000035,10,211.39480829999957,211.39480829999957,0.14156809999985853,213.42843030000222,[-0.08833333333333333],[0.055],[1],[0],[0],[2.1097445000013977],['target'],934200,001,2024-10-04_11h18.43.131,Session5_VisualSearch,2024.1.5,None,2024-10-04 11h18.51.765748 +0530,
90,0,90,0,213.52623180000228,,213.43588060000184,10,213.52623180000228,213.52623180000228,0.06331399999908172,216.97888710000188,[0.445],[0.43166666666666664],[1],[0],[0],[3.4805513999999675],['target'],934200,001,2024-10-04_11h18.43.131,Session5_VisualSearch,2024.1.5,None,2024-10-04 11h18.51.765748 +0530,
91,0,91,0,217.09217170000193,,216.98590239999976,10,217.09217170000193,217.09217170000193,0.07146409999768366,220.68146369999886,[-0.4066666666666667],[0.12833333333333333],[1],[0],[0],[3.624581299998681],['target'],934200,001,2024-10-04_11h18.43.131,Session5_VisualSearch,2024.1.5,None,2024-10-04 11h18.51.765748 +0530,
92,0,92,0,220.91062760000204,,220.70522709999932,10,220.91062760000204,220.91062760000204,0.14395080000031157,222.37988020000194,[-0.43166666666666664],[0.085],[1],[0],[0],[1.5331268000009004],['target'],934200,001,2024-10-04_11h18.43.131,Session5_VisualSearch,2024.1.5,None,2024-10-04 11h18.51.765748 +0530,
93,0,93,0,222.50998080000136,,222.39644770000086,5,222.50998080000136,222.50998080000136,0.07098810000024969,224.61354159999973,[-0.13],[-0.41833333333333333],[1],[0],[0],[2.1480977999999595],['target'],934200,001,2024-10-04_11h18.43.131,Session5_VisualSearch,2024.1.5,None,2024-10-04 11h18.51.765748 +0530,
94,0,94,0,224.84323790000053,,224.6291592000016,10,224.84323790000053,224.84323790000053,0.15310410000165575,227.1635052999991,[0.355],[-0.005],[1],[0],[0],[2.38460589999886],['target'],934200,001,2024-10-04_11h18.43.131,Session5_VisualSearch,2024.1.5,None,2024-10-04 11h18.51.765748 +0530,
95,0,95,0,227.27416079999966,,227.1814794999991,5,227.27416079999966,227.27416079999966,0.06596260000151233,228.9621236999992,[0.095],[0.275],[1],[0],[0],[1.7167575000021316],['target'],934200,001,2024-10-04_11h18.43.131,Session5_VisualSearch,2024.1.5,None,2024-10-04 11h18.51.765748 +0530,
96,0,96,0,229.09194919999936,,228.98004109999965,5,229.09194919999936,229.09194919999936,0.07516659999964759,230.54746090000117,[0.15666666666666668],[-0.028333333333333332],[1],[0],[0],[1.4968670999987808],['target'],934200,001,2024-10-04_11h18.43.131,Session5_VisualSearch,2024.1.5,None,2024-10-04 11h18.51.765748 +0530,
97,0,97,0,230.75750830000106,,230.56344420000096,10,230.75750830000106,230.75750830000106,0.15258729999914067,232.16167150000183,[0.016666666666666666],[0.09333333333333334],[1],[0],[0],[1.4478607999990345],['target'],934200,001,2024-10-04_11h18.43.131,Session5_VisualSearch,2024.1.5,None,2024-10-04 11h18.51.765748 +0530,
98,0,98,0,232.29150149999987,,232.1772430000019,5,232.29150149999987,232.29150149999987,0.07669309999982943,233.69690730000002,[0.25166666666666665],[-0.17166666666666666],[1],[0],[0],[1.4455686999972386],['target'],934200,001,2024-10-04_11h18.43.131,Session5_VisualSearch,2024.1.5,None,2024-10-04 11h18.51.765748 +0530,
99,0,99,0,233.85680700000012,,233.71552040000097,10,233.85680700000012,233.85680700000012,0.123883799999021,235.74262330000056,[-0.03],[0.33166666666666667],[1],[0],[0],[1.9055041000028723],['target'],934200,001,2024-10-04_11h18.43.131,Session5_VisualSearch,2024.1.5,None,2024-10-04 11h18.51.765748 +0530,
100,0,100,0,235.83971179999935,,235.7497516000003,10,235.83971179999935,235.83971179999935,0.06598630000007688,237.9584513000009,[-0.20166666666666666],[-0.19833333333333333],[1],[0],[0],[2.143520099998568],['target'],934200,001,2024-10-04_11h18.43.131,Session5_VisualSearch,2024.1.5,None,2024-10-04 11h18.51.765748 +0530,
101,0,101,0,238.07296119999955,,237.96566539999912,10,238.07296119999955,238.07296119999955,0.0725737000029767,240.57815169999958,[0.17166666666666666],[0.295],[1],[0],[0],[2.5402113999989524],['target'],934200,001,2024-10-04_11h18.43.131,Session5_VisualSearch,2024.1.5,None,2024-10-04 11h18.51.765748 +0530,
102,0,102,0,240.70888940000077,,240.59545400000206,5,240.70888940000077,240.70888940000077,0.0749547999985225,242.2437286000022,[0.14166666666666666],[-0.041666666666666664],[1],[0],[0],[1.5754323000001023],['target'],934200,001,2024-10-04_11h18.43.131,Session5_VisualSearch,2024.1.5,None,2024-10-04 11h18.51.765748 +0530,
103,0,103,0,242.3744915999996,,242.26012619999892,5,242.3744915999996,242.3744915999996,0.07496069999979227,244.55979630000002,[0.155],[0.36],[1],[0],[0],[2.2288872999997693],['target'],934200,001,2024-10-04_11h18.43.131,Session5_VisualSearch,2024.1.5,None,2024-10-04 11h18.51.765748 +0530,
104,0,104,0,244.69053410000197,,244.57766520000223,5,244.69053410000197,244.69053410000197,0.07533859999966808,246.24273410000023,[0.025],[0.06166666666666667],[1],[0],[0],[1.5953646000016306],['target'],934200,001,2024-10-04_11h18.43.131,Session5_VisualSearch,2024.1.5,None,2024-10-04 11h18.51.765748 +0530,
105,0,105,0,246.37350349999906,,246.2641126999988,5,246.37350349999906,246.37350349999906,0.07396520000111195,248.34105500000078,[-0.39],[0.065],[1],[0],[0],[2.005015899998398],['target'],934200,001,2024-10-04_11h18.43.131,Session5_VisualSearch,2024.1.5,None,2024-10-04 11h18.51.765748 +0530,
106,0,106,0,248.42152360000182,,248.35545520000233,5,248.42152360000182,248.42152360000182,0.04609570000320673,250.00736640000105,[-0.345],[0.12166666666666667],[1],[0],[0],[1.608365899999626],['target'],934200,001,2024-10-04_11h18.43.131,Session5_VisualSearch,2024.1.5,None,2024-10-04 11h18.51.765748 +0530,
107,0,107,0,250.08817700000145,,250.0159573000019,5,250.08817700000145,250.08817700000145,0.04432010000164155,251.49057810000158,[0.32666666666666666],[-0.0033333333333333335],[1],[0],[0],[1.4312605000013718],['target'],934200,001,2024-10-04_11h18.43.131,Session5_VisualSearch,2024.1.5,None,2024-10-04 11h18.51.765748 +0530,
108,0,108,0,251.60466860000088,,251.49946999999884,10,251.60466860000088,251.60466860000088,0.08093919999737409,253.13985110000067,[-0.04666666666666667],[0.325],[1],[0],[0],[1.5606521999980032],['target'],934200,001,2024-10-04_11h18.43.131,Session5_VisualSearch,2024.1.5,None,2024-10-04 11h18.51.765748 +0530,
109,0,109,0,253.20459800000026,,253.1473274000018,5,253.20459800000026,253.20459800000026,0.03756450000219047,256.910090100002,[0.37833333333333335],[0.48],[1],[0],[0],[3.7253582999983337],['target'],934200,001,2024-10-04_11h18.43.131,Session5_VisualSearch,2024.1.5,None,2024-10-04 11h18.51.765748 +0530,
110,0,110,0,257.0036961000005,,256.92665580000175,5,257.0036961000005,257.0036961000005,0.0647979999994277,259.125199099999,[0.14833333333333334],[0.2783333333333333],[1],[0],[0],[2.137754200000927],['target'],934200,001,2024-10-04_11h18.43.131,Session5_VisualSearch,2024.1.5,None,2024-10-04 11h18.51.765748 +0530,
111,0,111,0,259.2203781999997,,259.1407457999994,10,259.2203781999997,259.2203781999997,0.061555399999633664,261.3056923000004,[0.028333333333333332],[-0.2966666666666667],[1],[0],[0],[2.106589700000768],['target'],934200,001,2024-10-04_11h18.43.131,Session5_VisualSearch,2024.1.5,None,2024-10-04 11h18.51.765748 +0530,
112,0,112,0,261.41989789999934,,261.31423030000224,10,261.41989789999934,261.41989789999934,0.08101750000059837,263.4384878000019,[0.35833333333333334],[-0.09833333333333333],[1],[0],[0],[2.044144600000436],['target'],934200,001,2024-10-04_11h18.43.131,Session5_VisualSearch,2024.1.5,None,2024-10-04 11h18.51.765748 +0530,
113,0,113,0,263.5363545,,263.44558490000054,10,263.5363545,263.5363545,0.060420000001613516,265.85910420000073,[-0.22333333333333333],[0.2833333333333333],[1],[0],[0],[2.353428200000053],['target'],934200,001,2024-10-04_11h18.43.131,Session5_VisualSearch,2024.1.5,None,2024-10-04 11h18.51.765748 +0530,
114,0,114,0,266.0873767000012,,265.87756570000056,10,266.0873767000012,266.0873767000012,0.14172799999869312,268.7050005000019,[0.365],[-0.25166666666666665],[1],[0],[0],[2.688065500002267],['target'],934200,001,2024-10-04_11h18.43.131,Session5_VisualSearch,2024.1.5,None,2024-10-04 11h18.51.765748 +0530,
115,0,115,0,268.8352515000006,,268.713545300001,10,268.8352515000006,268.8352515000006,0.09356670000124723,272.4373489999998,[-0.235],[-0.43833333333333335],[1],[0],[0],[3.6315303000010317],['target'],934200,001,2024-10-04_11h18.43.131,Session5_VisualSearch,2024.1.5,None,2024-10-04 11h18.51.765748 +0530,
116,0,116,0,272.5019362999992,,272.44515039999897,5,272.5019362999992,272.5019362999992,0.037234600000374485,274.54066539999985,[-0.275],[0.018333333333333333],[1],[0],[0],[2.0589851000004273],['target'],934200,001,2024-10-04_11h18.43.131,Session5_VisualSearch,2024.1.5,None,2024-10-04 11h18.51.765748 +0530,
117,0,117,0,274.77018410000164,,274.5612966000008,10,274.77018410000164,274.77018410000164,0.14146850000179256,276.67233860000124,[0.4816666666666667],[0.13333333333333333],[1],[0],[0],[1.9731904000000213],['target'],934200,001,2024-10-04_11h18.43.131,Session5_VisualSearch,2024.1.5,None,2024-10-04 11h18.51.765748 +0530,
118,0,118,0,276.9037568999993,,276.6925788000008,10,276.9037568999993,276.9037568999993,0.15075330000036047,278.9889089999997,[0.29333333333333333],[0.09166666666666666],[1],[0],[0],[2.1473207000017283],['target'],934200,001,2024-10-04_11h18.43.131,Session5_VisualSearch,2024.1.5,None,2024-10-04 11h18.51.765748 +0530,
119,0,119,0,279.1185375000023,,279.0041949000006,5,279.1185375000023,279.1185375000023,0.0736192000003939,280.79315620000125,[0.435],[-0.415],[1],[0],[0],[1.718832400001702],['target'],934200,001,2024-10-04_11h18.43.131,Session5_VisualSearch,2024.1.5,None,2024-10-04 11h18.51.765748 +0530,
120,0,120,0,281.0194474000018,,280.81339370000205,10,281.0194474000018,281.0194474000018,0.1491643999979715,283.2054061000017,[-0.205],[0.2816666666666667],[1],[0],[0],[2.245335999999952],['target'],934200,001,2024-10-04_11h18.43.131,Session5_VisualSearch,2024.1.5,None,2024-10-04 11h18.51.765748 +0530,
121,0,121,0,283.4359645000004,,283.2219554000003,10,283.4359645000004,283.4359645000004,0.14774949999991804,285.12142830000084,[-0.005],[-0.07166666666666667],[1],[0],[0],[1.753704700000526],['target'],934200,001,2024-10-04_11h18.43.131,Session5_VisualSearch,2024.1.5,None,2024-10-04 11h18.51.765748 +0530,
122,0,122,0,285.2515411000022,,285.13752920000115,5,285.2515411000022,285.2515411000022,0.07455050000135088,287.18784159999996,[0.04833333333333333],[-0.27],[1],[0],[0],[1.9800813000001654],['target'],934200,001,2024-10-04_11h18.43.131,Session5_VisualSearch,2024.1.5,None,2024-10-04 11h18.51.765748 +0530,
123,0,123,0,287.266359199999,,287.19489429999885,5,287.266359199999,287.266359199999,0.03963550000116811,289.70656040000176,[0.06833333333333333],[0.185],[1],[0],[0],[2.4719588000007207],['target'],934200,001,2024-10-04_11h18.43.131,Session5_VisualSearch,2024.1.5,None,2024-10-04 11h18.51.765748 +0530,
124,0,124,0,289.83445700000084,,289.72304820000136,5,289.83445700000084,289.83445700000084,0.0733061999999336,291.33544990000155,[0.19833333333333333],[-0.42333333333333334],[1],[0],[0],[1.5412859999996726],['target'],934200,001,2024-10-04_11h18.43.131,Session5_VisualSearch,2024.1.5,None,2024-10-04 11h18.51.765748 +0530,
125,0,125,0,291.48297079999975,,291.3434496000009,10,291.48297079999975,291.48297079999975,0.08558650000122725,294.0351460999991,[-0.23666666666666666],[-0.4683333333333333],[1],[0],[0],[2.6072945999985677],['target'],934200,001,2024-10-04_11h18.43.131,Session5_VisualSearch,2024.1.5,None,2024-10-04 11h18.51.765748 +0530,
126,0,126,0,294.11693709999963,,294.0518798000012,5,294.11693709999963,294.11693709999963,0.044880499997816514,296.3863041000004,[0.415],[-0.2966666666666667],[1],[0],[0],[2.2927113999976427],['target'],934200,001,2024-10-04_11h18.43.131,Session5_VisualSearch,2024.1.5,None,2024-10-04 11h18.51.765748 +0530,
127,0,127,0,296.48176579999927,,296.4030788000018,5,296.48176579999927,296.48176579999927,0.05950929999744403,298.21807550000085,[0.22],[-0.24166666666666667],[1],[0],[0],[1.759254399999918],['target'],934200,001,2024-10-04_11h18.43.131,Session5_VisualSearch,2024.1.5,None,2024-10-04 11h18.51.765748 +0530,
128,0,128,0,298.2820320999999,,298.2260649999989,5,298.2820320999999,298.2820320999999,0.03695210000296356,299.7522425999996,[0.03833333333333333],[-0.24333333333333335],[1],[0],[0],[1.4899666999990586],['target'],934200,001,2024-10-04_11h18.43.131,Session5_VisualSearch,2024.1.5,None,2024-10-04 11h18.51.765748 +0530,
129,0,129,0,299.86704649999956,,299.7677872000022,5,299.86704649999956,299.86704649999956,0.0670021000005363,302.2026138000001,[-0.17166666666666666],[0.29833333333333334],[1],[0],[0],[2.3727948000014294],['target'],934200,001,2024-10-04_11h18.43.131,Session5_VisualSearch,2024.1.5,None,2024-10-04 11h18.51.765748 +0530,
130,0,130,0,302.3312697000001,,302.21766330000173,10,302.3312697000001,302.3312697000001,0.09476740000172867,304.10472909999953,[-0.32166666666666666],[-0.04833333333333333],[1],[0],[0],[1.7952574999981152],['target'],934200,001,2024-10-04_11h18.43.131,Session5_VisualSearch,2024.1.5,None,2024-10-04 11h18.51.765748 +0530,
131,0,131,0,304.33264269999927,,304.12152590000187,10,304.33264269999927,304.33264269999927,0.14583409999977448,306.4329977000016,[0.46166666666666667],[-0.365],[1],[0],[0],[2.1676267000002554],['target'],934200,001,2024-10-04_11h18.43.131,Session5_VisualSearch,2024.1.5,None,2024-10-04 11h18.51.765748 +0530,
132,0,132,0,306.5307064000008,,306.4395474000012,10,306.5307064000008,306.5307064000008,0.0700366999990365,311.7527138000005,[-0.245],[-0.021666666666666667],[1],[0],[0],[5.2433469999996305],['target'],934200,001,2024-10-04_11h18.43.131,Session5_VisualSearch,2024.1.5,None,2024-10-04 11h18.51.765748 +0530,
133,0,133,0,311.88425629999983,,311.7705731999995,5,311.88425629999983,311.88425629999983,0.07022649999998976,314.15352619999976,[0.17666666666666667],[0.22166666666666668],[1],[0],[0],[2.31498140000258],['target'],934200,001,2024-10-04_11h18.43.131,Session5_VisualSearch,2024.1.5,None,2024-10-04 11h18.51.765748 +0530,
134,0,134,0,314.27965179999956,,314.173067300002,10,314.27965179999956,314.27965179999956,0.09154230000058305,315.7030655000017,[0.021666666666666667],[0.2916666666666667],[1],[0],[0],[1.4403634999980568],['target'],934200,001,2024-10-04_11h18.43.131,Session5_VisualSearch,2024.1.5,None,2024-10-04 11h18.51.765748 +0530,
135,0,135,0,315.829314300001,,315.71956050000153,10,315.829314300001,315.829314300001,0.08069590000013704,320.1006927000017,[-0.255],[-0.395],[1],[0],[0],[4.302413200002775],['target'],934200,001,2024-10-04_11h18.43.131,Session5_VisualSearch,2024.1.5,None,2024-10-04 11h18.51.765748 +0530,
136,0,136,0,320.26201460000084,,320.11598890000096,10,320.26201460000084,320.26201460000084,0.11657740000009653,323.4310581999998,[-0.16166666666666665],[0.19833333333333333],[1],[0],[0],[3.201694499999576],['target'],934200,001,2024-10-04_11h18.43.131,Session5_VisualSearch,2024.1.5,None,2024-10-04 11h18.51.765748 +0530,
137,0,137,0,323.59552970000004,,323.4384616999996,10,323.59552970000004,323.59552970000004,0.11082840000017313,326.1664997000007,[-0.3383333333333333],[0.051666666666666666],[1],[0],[0],[2.6179637999994156],['target'],934200,001,2024-10-04_11h18.43.131,Session5_VisualSearch,2024.1.5,None,2024-10-04 11h18.51.765748 +0530,
138,0,138,0,326.2966156000002,,326.1828994999996,5,326.2966156000002,326.2966156000002,0.07299380000040401,328.18294909999895,[-0.0016666666666666668],[0.14],[1],[0],[0],[1.930852199999208],['target'],934200,001,2024-10-04_11h18.43.131,Session5_VisualSearch,2024.1.5,None,2024-10-04 11h18.51.765748 +0530,
139,0,139,0,328.39641029999984,,328.19917700000224,10,328.39641029999984,328.39641029999984,0.14328589999786345,330.11286180000025,[-0.44166666666666665],[-0.011666666666666667],[1],[0],[0],[1.7748184000010951],['target'],934200,001,2024-10-04_11h18.43.131,Session5_VisualSearch,2024.1.5,None,2024-10-04 11h18.51.765748 +0530,
140,0,140,0,330.177447500002,,330.12007630000153,5,330.177447500002,330.177447500002,0.037333800002670614,333.2978068000011,[0.2683333333333333],[0.058333333333333334],[1],[0],[0],[3.140869799997745],['target'],934200,001,2024-10-04_11h18.43.131,Session5_VisualSearch,2024.1.5,None,2024-10-04 11h18.51.765748 +0530,
141,0,141,0,333.4104417000017,,333.30944380000074,10,333.4104417000017,333.4104417000017,0.07993210000131512,334.9623696999988,[-0.23666666666666666],[0.105],[1],[0],[0],[1.5749421000000439],['target'],934200,001,2024-10-04_11h18.43.131,Session5_VisualSearch,2024.1.5,None,2024-10-04 11h18.51.765748 +0530,
142,0,142,0,335.0774031000001,,334.9696471999996,10,335.0774031000001,335.0774031000001,0.07955990000118618,336.68256850000034,[-0.4816666666666667],[-0.09833333333333333],[1],[0],[0],[1.6336397000013676],['target'],934200,001,2024-10-04_11h18.43.131,Session5_VisualSearch,2024.1.5,None,2024-10-04 11h18.51.765748 +0530,
143,0,143,0,336.81231090000074,,336.69855259999895,5,336.81231090000074,336.81231090000074,0.07428369999979623,338.79538200000025,[-0.4033333333333333],[0.195],[1],[0],[0],[2.0268472000025213],['target'],934200,001,2024-10-04_11h18.43.131,Session5_VisualSearch,2024.1.5,None,2024-10-04 11h18.51.765748 +0530,
144,0,144,0,338.89352660000077,,338.80230400000073,10,338.89352660000077,338.89352660000077,0.06594119999863324,340.69761890000154,[-0.06833333333333333],[0.041666666666666664],[1],[0],[0],[1.829750900000363],['target'],934200,001,2024-10-04_11h18.43.131,Session5_VisualSearch,2024.1.5,None,2024-10-04 11h18.51.765748 +0530,
145,0,145,0,340.82620999999926,,340.71384780000153,10,340.82620999999926,340.82620999999926,0.09186240000053658,342.8477305000015,[0.05333333333333334],[0.4116666666666667],[1],[0],[0],[2.046355099999346],['target'],934200,001,2024-10-04_11h18.43.131,Session5_VisualSearch,2024.1.5,None,2024-10-04 11h18.51.765748 +0530,
146,0,146,0,342.9110870000004,,342.8617340000019,5,342.9110870000004,342.9110870000004,0.030807800001639407,345.779224599999,[-0.3883333333333333],[0.45166666666666666],[1],[0],[0],[2.889589900001738],['target'],934200,001,2024-10-04_11h18.43.131,Session5_VisualSearch,2024.1.5,None,2024-10-04 11h18.51.765748 +0530,
147,0,147,0,345.8921756999989,,345.7891297999995,10,345.8921756999989,345.8921756999989,0.08265880000180914,348.5279864000004,[-0.075],[-0.16],[1],[0],[0],[2.6579799999999523],['target'],934200,001,2024-10-04_11h18.43.131,Session5_VisualSearch,2024.1.5,None,2024-10-04 11h18.51.765748 +0530,
148,0,148,0,348.5920022999999,,348.53507470000113,5,348.5920022999999,348.5920022999999,0.03520410000055563,350.1613212000011,[-0.11833333333333333],[0.21833333333333332],[1],[0],[0],[1.5918129999990924],['target'],934200,001,2024-10-04_11h18.43.131,Session5_VisualSearch,2024.1.5,None,2024-10-04 11h18.51.765748 +0530,
149,0,149,0,350.2422207000018,,350.1703981999999,5,350.2422207000018,350.2422207000018,0.04899289999957546,351.64610320000065,[-0.015],[0.24],[1],[0],[0],[1.4274475000020175],['target'],934200,001,2024-10-04_11h18.43.131,Session5_VisualSearch,2024.1.5,None,2024-10-04 11h18.51.765748 +0530,
150,0,150,0,351.7748505999989,,351.6622978000014,10,351.7748505999989,351.7748505999989,0.09567610000158311,353.896193200002,[0.011666666666666667],[0.335],[1],[0],[0],[2.1418836999982886],['target'],934200,001,2024-10-04_11h18.43.131,Session5_VisualSearch,2024.1.5,None,2024-10-04 11h18.51.765748 +0530,
151,0,151,0,354.1271471,,353.91401849999966,10,354.1271471,354.1271471,0.14450790000046254,356.1464147000006,[0.21833333333333332],[0.21333333333333335],[1],[0],[0],[2.0925095999991754],['target'],934200,001,2024-10-04_11h18.43.131,Session5_VisualSearch,2024.1.5,None,2024-10-04 11h18.51.765748 +0530,
152,0,152,0,356.29328410000016,,356.1663903000008,5,356.29328410000016,356.29328410000016,0.0810751999997592,358.0130487999995,[0.30333333333333334],[-0.29333333333333333],[1],[0],[0],[1.768449299997883],['target'],934200,001,2024-10-04_11h18.43.131,Session5_VisualSearch,2024.1.5,None,2024-10-04 11h18.51.765748 +0530,
153,0,153,0,358.27684059999956,,358.03085080000164,10,358.27684059999956,358.27684059999956,0.1488173999969149,360.02773290000187,[-0.415],[0.18],[1],[0],[0],[1.8516601000010269],['target'],934200,001,2024-10-04_11h18.43.131,Session5_VisualSearch,2024.1.5,None,2024-10-04 11h18.51.765748 +0530,
154,0,154,0,360.1242001999999,,360.0431113000013,5,360.1242001999999,360.1242001999999,0.05231840000124066,362.4610945000022,[-0.025],[-0.375],[1],[0],[0],[2.3693912999988243],['target'],934200,001,2024-10-04_11h18.43.131,Session5_VisualSearch,2024.1.5,None,2024-10-04 11h18.51.765748 +0530,
155,0,155,0,362.5745855000023,,362.4752511000006,5,362.5745855000023,362.5745855000023,0.06307379999998375,365.12708349999957,[0.20333333333333334],[0.14833333333333334],[1],[0],[0],[2.5921573000014178],['target'],934200,001,2024-10-04_11h18.43.131,Session5_VisualSearch,2024.1.5,None,2024-10-04 11h18.51.765748 +0530,
156,0,156,0,365.24007970000093,,365.13956529999996,10,365.24007970000093,365.24007970000093,0.06705870000223513,366.72506050000084,[0.0016666666666666668],[0.175],[1],[0],[0],[1.5206824999986566],['target'],934200,001,2024-10-04_11h18.43.131,Session5_VisualSearch,2024.1.5,None,2024-10-04 11h18.51.765748 +0530,
157,0,157,0,366.78975379999974,,366.73197430000073,5,366.78975379999974,366.78975379999974,0.0370933000012883,368.8450288000022,[0.415],[0.47],[1],[0],[0],[2.0769319999999425],['target'],934200,001,2024-10-04_11h18.43.131,Session5_VisualSearch,2024.1.5,None,2024-10-04 11h18.51.765748 +0530,
158,0,158,0,368.95595870000034,,368.8517658000019,10,368.95595870000034,368.95595870000034,0.06951060000210418,370.4752723999991,[-0.26],[0.18666666666666668],[1],[0],[0],[1.554834499998833],['target'],934200,001,2024-10-04_11h18.43.131,Session5_VisualSearch,2024.1.5,None,2024-10-04 11h18.51.765748 +0530,
159,0,159,0,370.5395208000009,,370.4826768000021,5,370.5395208000009,370.5395208000009,0.037329200000385754,372.2107050000013,[0.2916666666666667],[0.07],[1],[0],[0],[1.6906081000015547],['target'],934200,001,2024-10-04_11h18.43.131,Session5_VisualSearch,2024.1.5,None,2024-10-04 11h18.51.765748 +0530,
160,0,160,0,372.44052790000205,,372.22662440000204,10,372.44052790000205,372.44052790000205,0.15880439999818918,375.5278732000006,[0.44166666666666665],[0.245],[1],[0],[0],[3.1466870000003837],['target'],934200,001,2024-10-04_11h18.43.131,Session5_VisualSearch,2024.1.5,None,2024-10-04 11h18.51.765748 +0530,
161,0,161,0,375.67178290000084,,375.5444736999998,10,375.67178290000084,375.67178290000084,0.08766019999893615,377.81141800000114,[0.43833333333333335],[-0.12833333333333333],[1],[0],[0],[2.181796000000759],['target'],934200,001,2024-10-04_11h18.43.131,Session5_VisualSearch,2024.1.5,None,2024-10-04 11h18.51.765748 +0530,
162,0,162,0,378.0226595999993,,377.82651890000125,10,378.0226595999993,378.0226595999993,0.1378709999989951,380.85771730000124,[0.395],[0.028333333333333332],[1],[0],[0],[2.895898099999613],['target'],934200,001,2024-10-04_11h18.43.131,Session5_VisualSearch,2024.1.5,None,2024-10-04 11h18.51.765748 +0530,
163,0,163,0,381.00452210000003,,380.8712822000016,10,381.00452210000003,381.00452210000003,0.09408690000054776,384.2097305999996,[0.24833333333333332],[0.285],[1],[0],[0],[3.247303100000863],['target'],934200,001,2024-10-04_11h18.43.131,Session5_VisualSearch,2024.1.5,None,2024-10-04 11h18.51.765748 +0530,
164,0,164,0,384.357233499999,,384.22759099999894,5,384.357233499999,384.357233499999,0.07672199999797158,387.0614979999991,[0.24166666666666667],[-0.18666666666666668],[1],[0],[0],[2.7605509999993956],['target'],934200,001,2024-10-04_11h18.43.131,Session5_VisualSearch,2024.1.5,None,2024-10-04 11h18.51.765748 +0530,
165,0,165,0,387.170449199999,,387.07854790000056,5,387.170449199999,387.170449199999,0.05855309999969904,389.75966100000005,[-0.3416666666666667],[0.03],[1],[0],[0],[2.627022200002102],['target'],934200,001,2024-10-04_11h18.43.131,Session5_VisualSearch,2024.1.5,None,2024-10-04 11h18.51.765748 +0530,
166,0,166,0,389.93734680000125,,389.77638650000154,10,389.93734680000125,389.93734680000125,0.1240038000032655,391.53855889999977,[-0.008333333333333333],[-0.115],[1],[0],[0],[1.6406390000011015],['target'],934200,001,2024-10-04_11h18.43.131,Session5_VisualSearch,2024.1.5,None,2024-10-04 11h18.51.765748 +0530,
167,0,167,0,391.60324559999935,,391.5458432000014,5,391.60324559999935,391.60324559999935,0.03880159999971511,393.5114622000001,[0.008333333333333333],[-0.105],[1],[0],[0],[1.926853500001016],['target'],934200,001,2024-10-04_11h18.43.131,Session5_VisualSearch,2024.1.5,None,2024-10-04 11h18.51.765748 +0530,
168,0,168,0,393.7032954999995,,393.52944299999945,10,393.7032954999995,393.7032954999995,0.13346150000143098,395.7711698999992,[-0.505],[0.425],[1],[0],[0],[2.110701400000835],['target'],934200,001,2024-10-04_11h18.43.131,Session5_VisualSearch,2024.1.5,None,2024-10-04 11h18.51.765748 +0530,
169,0,169,0,395.8857902000018,,395.7785866000013,10,395.8857902000018,395.8857902000018,0.06990060000316589,397.5762981000007,[-0.21833333333333332],[0.3416666666666667],[1],[0],[0],[1.7281484999984968],['target'],934200,001,2024-10-04_11h18.43.131,Session5_VisualSearch,2024.1.5,None,2024-10-04 11h18.51.765748 +0530,
170,0,170,0,397.704059300002,,397.5924331999995,5,397.704059300002,397.704059300002,0.07082359999913024,399.5754908000017,[0.075],[-0.305],[1],[0],[0],[1.91391239999939],['target'],934200,001,2024-10-04_11h18.43.131,Session5_VisualSearch,2024.1.5,None,2024-10-04 11h18.51.765748 +0530,
171,0,171,0,399.702119900001,,399.59292859999914,10,399.702119900001,399.702119900001,0.0876109999990149,403.0732981000001,[-0.3383333333333333],[-0.44666666666666666],[1],[0],[0],[3.394967299998825],['target'],934200,001,2024-10-04_11h18.43.131,Session5_VisualSearch,2024.1.5,None,2024-10-04 11h18.51.765748 +0530,
172,0,172,0,403.20290530000057,,403.0902090999989,5,403.20290530000057,403.20290530000057,0.07380969999940135,405.47433119999914,[0.455],[-0.40166666666666667],[1],[0],[0],[2.314997699999367],['target'],934200,001,2024-10-04_11h18.43.131,Session5_VisualSearch,2024.1.5,None,2024-10-04 11h18.51.765748 +0530,
173,0,173,0,405.65186790000007,,405.48988889999964,10,405.65186790000007,405.65186790000007,0.11673610000070767,407.23850669999956,[0.3466666666666667],[0.32666666666666666],[1],[0],[0],[1.6339298999992025],['target'],934200,001,2024-10-04_11h18.43.131,Session5_VisualSearch,2024.1.5,None,2024-10-04 11h18.51.765748 +0530,
174,0,174,0,407.3707652000012,,407.25552909999897,5,407.3707652000012,407.3707652000012,0.07326589999865973,409.25525930000003,[-0.37833333333333335],[-0.185],[1],[0],[0],[1.9319929999983287],['target'],934200,001,2024-10-04_11h18.43.131,Session5_VisualSearch,2024.1.5,None,2024-10-04 11h18.51.765748 +0530,
175,0,175,0,409.3872063000017,,409.27226299999893,5,409.3872063000017,409.3872063000017,0.0718142000005173,410.94014810000226,[-0.29],[-0.3016666666666667],[1],[0],[0],[1.599750999997923],['target'],934200,001,2024-10-04_11h18.43.131,Session5_VisualSearch,2024.1.5,None,2024-10-04 11h18.51.765748 +0530,
176,0,176,0,411.0689170000005,,410.9561887999989,5,411.0689170000005,411.0689170000005,0.07398629999806872,413.1047287000001,[0.16166666666666665],[-0.20666666666666667],[1],[0],[0],[2.0758418000004895],['target'],934200,001,2024-10-04_11h18.43.131,Session5_VisualSearch,2024.1.5,None,2024-10-04 11h18.51.765748 +0530,
177,0,177,0,413.16729589999886,,413.1118004000018,5,413.16729589999886,413.16729589999886,0.038067000001319684,415.4183914999994,[-0.24333333333333335],[0.4066666666666667],[1],[0],[0],[2.2695869999988645],['target'],934200,001,2024-10-04_11h18.43.131,Session5_VisualSearch,2024.1.5,None,2024-10-04 11h18.51.765748 +0530,
178,0,178,0,415.5332974000012,,415.4250983999991,10,415.5332974000012,415.5332974000012,0.07049099999858299,418.5539635999994,[0.485],[0.0],[1],[0],[0],[3.058787099998881],['target'],934200,001,2024-10-04_11h18.43.131,Session5_VisualSearch,2024.1.5,None,2024-10-04 11h18.51.765748 +0530,
179,0,179,0,418.6830501000004,,418.5701334000005,5,418.6830501000004,418.6830501000004,0.0963993000004848,421.67080120000173,[-0.105],[-0.32166666666666666],[1],[0],[0],[3.0083928000021842],['target'],934200,001,2024-10-04_11h18.43.131,Session5_VisualSearch,2024.1.5,None,2024-10-04 11h18.51.765748 +0530,
180,0,180,0,421.8323261000005,,421.68842829999994,10,421.8323261000005,421.8323261000005,0.11723989999882178,423.13882849999936,[-0.03],[0.145],[1],[0],[0],[1.3366894999999204],['target'],934200,001,2024-10-04_11h18.43.131,Session5_VisualSearch,2024.1.5,None,2024-10-04 11h18.51.765748 +0530,
181,0,181,0,423.36603280000054,,423.1582837999995,10,423.36603280000054,423.36603280000054,0.14567410000017844,425.2738817999998,[0.4066666666666667],[-0.08166666666666667],[1],[0],[0],[1.9718733000008797],['target'],934200,001,2024-10-04_11h18.43.131,Session5_VisualSearch,2024.1.5,None,2024-10-04 11h18.51.765748 +0530,
182,0,182,0,425.3986532000017,,425.2899806000023,5,425.3986532000017,425.3986532000017,0.07132470000215108,427.05343429999994,[0.42],[-0.15],[1],[0],[0],[1.6944140000014158],['target'],934200,001,2024-10-04_11h18.43.131,Session5_VisualSearch,2024.1.5,None,2024-10-04 11h18.51.765748 +0530,
183,0,183,0,427.21605249999993,,427.07001949999903,10,427.21605249999993,427.21605249999993,0.11401200000182143,430.2865234000019,[-0.20333333333333334],[-0.46166666666666667],[1],[0],[0],[3.106478200003039],['target'],934200,001,2024-10-04_11h18.43.131,Session5_VisualSearch,2024.1.5,None,2024-10-04 11h18.51.765748 +0530,
184,0,184,0,430.4646008999989,,430.30374120000124,10,430.4646008999989,430.4646008999989,0.1350775999999314,438.63512280000214,[-0.165],[-0.07],[1],[0],[0],[8.199962999999116],['target'],934200,001,2024-10-04_11h18.43.131,Session5_VisualSearch,2024.1.5,None,2024-10-04 11h18.51.765748 +0530,
185,0,185,0,438.86551540000073,,438.6545065999999,10,438.86551540000073,438.86551540000073,0.14756540000234963,441.1851413000004,[0.2683333333333333],[-0.25833333333333336],[1],[0],[0],[2.388061199999356],['target'],934200,001,2024-10-04_11h18.43.131,Session5_VisualSearch,2024.1.5,None,2024-10-04 11h18.51.765748 +0530,
186,0,186,0,441.29648989999987,,441.20336210000096,10,441.29648989999987,441.29648989999987,0.0694731999974465,443.1158776000011,[-0.10166666666666667],[0.26666666666666666],[1],[0],[0],[1.8482676000021456],['target'],934200,001,2024-10-04_11h18.43.131,Session5_VisualSearch,2024.1.5,None,2024-10-04 11h18.51.765748 +0530,
187,0,187,0,443.21361850000176,,443.12488980000126,10,443.21361850000176,443.21361850000176,0.060701299997163005,444.95345520000046,[0.37],[0.23833333333333334],[1],[0],[0],[1.7686109999995097],['target'],934200,001,2024-10-04_11h18.43.131,Session5_VisualSearch,2024.1.5,None,2024-10-04 11h18.51.765748 +0530,
188,0,188,0,445.1298487000022,,444.9691442000003,10,445.1298487000022,445.1298487000022,0.11837590000141063,447.11671639999986,[-0.04833333333333333],[0.105],[1],[0],[0],[2.031614299998182],['target'],934200,001,2024-10-04_11h18.43.131,Session5_VisualSearch,2024.1.5,None,2024-10-04 11h18.51.765748 +0530,
189,0,189,0,447.1790232000021,,447.12567240000135,5,447.1790232000021,447.1790232000021,0.03358380000281613,448.90083629999936,[0.3333333333333333],[-0.15166666666666667],[1],[0],[0],[1.7420343999983743],['target'],934200,001,2024-10-04_11h18.43.131,Session5_VisualSearch,2024.1.5,None,2024-10-04 11h18.51.765748 +0530,
190,0,190,0,449.02990910000153,,448.916365699999,5,449.02990910000153,449.02990910000153,0.07247780000034254,451.232893299999,[0.025],[0.155],[1],[0],[0],[2.247877400001016],['target'],934200,001,2024-10-04_11h18.43.131,Session5_VisualSearch,2024.1.5,None,2024-10-04 11h18.51.765748 +0530,
191,0,191,0,451.3287842999998,,451.24534570000105,5,451.3287842999998,451.3287842999998,0.06315190000168514,453.2310596999996,[0.36833333333333335],[0.3283333333333333],[1],[0],[0],[1.9249903000018094],['target'],934200,001,2024-10-04_11h18.43.131,Session5_VisualSearch,2024.1.5,None,2024-10-04 11h18.51.765748 +0530,
192,0,192,0,453.378936000001,,453.24015150000196,10,453.378936000001,453.378936000001,0.08965309999985038,456.69691629999943,[0.19],[0.275],[1],[0],[0],[3.3684622000000672],['target'],934200,001,2024-10-04_11h18.43.131,Session5_VisualSearch,2024.1.5,None,2024-10-04 11h18.51.765748 +0530,
193,0,193,0,456.84503530000075,,456.709599400001,10,456.84503530000075,456.84503530000075,0.09149079999770038,459.2347010000012,[-0.255],[-0.17833333333333334],[1],[0],[0],[2.435414999999921],['target'],934200,001,2024-10-04_11h18.43.131,Session5_VisualSearch,2024.1.5,None,2024-10-04 11h18.51.765748 +0530,
194,0,194,0,459.3623574000012,,459.25122660000125,5,459.3623574000012,459.3623574000012,0.07276270000147633,460.8649297000011,[-0.20666666666666667],[0.09166666666666666],[1],[0],[0],[1.5439119000002393],['target'],934200,001,2024-10-04_11h18.43.131,Session5_VisualSearch,2024.1.5,None,2024-10-04 11h18.51.765748 +0530,
195,0,195,0,460.9775795000023,,460.8736456000006,10,460.9775795000023,460.9775795000023,0.0783171000002767,462.8458290999988,[-0.17333333333333334],[0.09166666666666666],[1],[0],[0],[1.8950707000003604],['target'],934200,001,2024-10-04_11h18.43.131,Session5_VisualSearch,2024.1.5,None,2024-10-04 11h18.51.765748 +0530,
196,0,196,0,462.96091109999907,,462.85280219999913,10,462.96091109999907,462.96091109999907,0.06979869999850052,467.5983238000008,[-0.385],[-0.445],[1],[0],[0],[4.676097199997457],['target'],934200,001,2024-10-04_11h18.43.131,Session5_VisualSearch,2024.1.5,None,2024-10-04 11h18.51.765748 +0530,
197,0,197,0,467.72927179999897,,467.6137211999994,5,467.72927179999897,467.72927179999897,0.07372809999651508,470.8313359999993,[-0.25166666666666665],[-0.3616666666666667],[1],[0],[0],[3.1476924999988114],['target'],934200,001,2024-10-04_11h18.43.131,Session5_VisualSearch,2024.1.5,None,2024-10-04 11h18.51.765748 +0530,
198,0,198,0,470.97778280000057,,470.8533760999999,10,470.97778280000057,470.97778280000057,0.08558260000063456,472.94525050000084,[0.37833333333333335],[-0.028333333333333332],[1],[0],[0],[2.007355899997492],['target'],934200,001,2024-10-04_11h18.43.131,Session5_VisualSearch,2024.1.5,None,2024-10-04 11h18.51.765748 +0530,
199,0,199,0,473.0430650999988,,472.9608509999998,5,473.0430650999988,473.0430650999988,0.05185429999983171,474.49739129999944,[0.058333333333333334],[0.22],[1],[0],[0],[1.4878652000006696],['target'],934200,001,2024-10-04_11h18.43.131,Session5_VisualSearch,2024.1.5,None,2024-10-04 11h18.51.765748 +0530,
