word,colour,Stimulus_condition,correct_response,trials.thisRepN,trials.thisTrialN,trials.thisN,trials.thisIndex,thisRow.t,notes,Ins.started,text_2.started,Ins.stopped,trial.started,fixation.started,fixation.stopped,text.started,key_resp.started,trial.stopped,key_resp.keys,key_resp.corr,key_resp.rt,key_resp.duration,Thanks.started,text_3.started,Thanks.stopped,participant,session,date,expName,psychopyVersion,frameRate,expStart,
,,,,,,,,,,0.050645800307393074,0.08866820018738508,1.0016709002666175,,,,,,,,,,,,,,711708,001,2024-08-23_11h25.57.494,StroopTask,2024.1.5,None,2024-08-23 11h26.05.343961 +0530,
RED,red,C,r,0,0,0,0,1.0796574000269175,,,,,1.0394477001391351,1.0796574000269175,1.5008443002589047,1.5008443002589047,1.5008443002589047,2.32420020038262,r,1,0.7990120002068579,None,,,,711708,001,2024-08-23_11h25.57.494,StroopTask,2024.1.5,None,2024-08-23 11h26.05.343961 +0530,
RED,blue,I,b,0,1,1,1,2.346038700081408,,,,,2.3293619002215564,2.346038700081408,2.8338200002908707,2.8338200002908707,2.8338200002908707,3.482543300371617,b,1,0.6319667003117502,None,,,,711708,001,2024-08-23_11h25.57.494,StroopTask,2024.1.5,None,2024-08-23 11h26.05.343961 +0530,
BLUE,blue,C,b,0,2,2,2,3.5297516002319753,,,,,3.484843200072646,3.5297516002319753,3.984067600220442,3.984067600220442,3.984067600220442,4.453943300060928,b,1,0.46668100031092763,None,,,,711708,001,2024-08-23_11h25.57.494,StroopTask,2024.1.5,None,2024-08-23 11h26.05.343961 +0530,
BLUE,blue,C,b,0,3,3,3,4.479067500215024,,,,,4.456113700289279,4.479067500215024,4.9672064003534615,4.9672064003534615,4.9672064003534615,5.315368300303817,b,1,0.32583949994295835,None,,,,711708,001,2024-08-23_11h25.57.494,StroopTask,2024.1.5,None,2024-08-23 11h26.05.343961 +0530,
RED,red,C,r,1,0,4,0,5.345988400280476,,,,,5.3174884002655745,5.345988400280476,5.8184697004035115,5.8184697004035115,5.8184697004035115,6.336671500001103,r,1,0.5093871001154184,None,,,,711708,001,2024-08-23_11h25.57.494,StroopTask,2024.1.5,None,2024-08-23 11h26.05.343961 +0530,
BLUE,blue,C,b,1,1,5,3,6.379866700153798,,,,,6.338806100189686,6.379866700153798,6.849962600041181,6.849962600041181,6.849962600041181,7.319461200386286,b,1,0.45199650013819337,None,,,,711708,001,2024-08-23_11h25.57.494,StroopTask,2024.1.5,None,2024-08-23 11h26.05.343961 +0530,
RED,blue,I,b,1,2,6,1,7.361623500008136,,,,,7.32176459999755,7.361623500008136,7.832871100399643,7.832871100399643,7.832871100399643,8.597272300161421,b,1,0.7524292999878526,None,,,,711708,001,2024-08-23_11h25.57.494,StroopTask,2024.1.5,None,2024-08-23 11h26.05.343961 +0530,
BLUE,blue,C,b,1,3,7,2,8.62792790029198,,,,,8.59959420002997,8.62792790029198,9.099527700338513,9.099527700338513,9.099527700338513,10.003229700028896,b,1,0.8999657998792827,None,,,,711708,001,2024-08-23_11h25.57.494,StroopTask,2024.1.5,None,2024-08-23 11h26.05.343961 +0530,
RED,red,C,r,2,0,8,0,10.0448034000583,,,,,10.005491100251675,10.0448034000583,10.516103100031614,10.516103100031614,10.516103100031614,10.969187200069427,r,1,0.44952559983357787,None,,,,711708,001,2024-08-23_11h25.57.494,StroopTask,2024.1.5,None,2024-08-23 11h26.05.343961 +0530,
BLUE,blue,C,b,2,1,9,2,11.01128390012309,,,,,10.971550100017339,11.01128390012309,11.482184800319374,11.482184800319374,11.482184800319374,11.937166900373995,b,1,0.4369466998614371,None,,,,711708,001,2024-08-23_11h25.57.494,StroopTask,2024.1.5,None,2024-08-23 11h26.05.343961 +0530,
RED,blue,I,b,2,2,10,1,11.961349599994719,,,,,11.939426600001752,11.961349599994719,12.449001600034535,12.449001600034535,12.449001600034535,13.118402600288391,b,1,0.66505610011518,None,,,,711708,001,2024-08-23_11h25.57.494,StroopTask,2024.1.5,None,2024-08-23 11h26.05.343961 +0530,
BLUE,blue,C,b,2,3,11,3,13.144197100307792,,,,,13.120705100242049,13.144197100307792,13.632021200377494,13.632021200377494,13.632021200377494,13.98067170009017,b,1,0.32274820003658533,None,,,,711708,001,2024-08-23_11h25.57.494,StroopTask,2024.1.5,None,2024-08-23 11h26.05.343961 +0530,
BLUE,blue,C,b,3,0,12,2,13.998591300100088,,,,,13.982913800049573,13.998591300100088,14.482090000063181,14.482090000063181,14.482090000063181,14.870861600153148,b,1,0.3776089996099472,None,,,,711708,001,2024-08-23_11h25.57.494,StroopTask,2024.1.5,None,2024-08-23 11h26.05.343961 +0530,
RED,blue,I,b,3,1,13,1,14.91065050009638,,,,,14.873149800114334,14.91065050009638,15.384494800120592,15.384494800120592,15.384494800120592,15.668864600360394,b,1,0.2762398002669215,None,,,,711708,001,2024-08-23_11h25.57.494,StroopTask,2024.1.5,None,2024-08-23 11h26.05.343961 +0530,
RED,red,C,r,3,2,14,0,15.693937200121582,,,,,15.671194500289857,15.693937200121582,16.182336300145835,16.182336300145835,16.182336300145835,16.75114140007645,r,1,0.554158799815923,None,,,,711708,001,2024-08-23_11h25.57.494,StroopTask,2024.1.5,None,2024-08-23 11h26.05.343961 +0530,
BLUE,blue,C,b,3,3,15,3,16.79441240010783,,,,,16.753466000314802,16.79441240010783,17.26509810006246,17.26509810006246,17.26509810006246,17.6682694000192,b,1,0.3965495000593364,None,,,,711708,001,2024-08-23_11h25.57.494,StroopTask,2024.1.5,None,2024-08-23 11h26.05.343961 +0530,
BLUE,blue,C,b,4,0,16,2,17.693792100064456,,,,,17.670481900218874,17.693792100064456,18.181534300092608,18.181534300092608,18.181534300092608,18.651753700338304,b,1,0.46460110042244196,None,,,,711708,001,2024-08-23_11h25.57.494,StroopTask,2024.1.5,None,2024-08-23 11h26.05.343961 +0530,
RED,blue,I,b,4,1,17,1,18.67691560043022,,,,,18.65401510009542,18.67691560043022,19.165237700100988,19.165237700100988,19.165237700100988,19.86856760038063,b,1,0.6976738995872438,None,,,,711708,001,2024-08-23_11h25.57.494,StroopTask,2024.1.5,None,2024-08-23 11h26.05.343961 +0530,
BLUE,blue,C,b,4,2,18,3,19.89318980043754,,,,,19.870787100400776,19.89318980043754,20.38519240031019,20.38519240031019,20.38519240031019,20.800306100398302,b,1,0.4025806998834014,None,,,,711708,001,2024-08-23_11h25.57.494,StroopTask,2024.1.5,None,2024-08-23 11h26.05.343961 +0530,
RED,red,C,r,4,3,19,0,20.827255400363356,,,,,20.80277490010485,20.827255400363356,21.314604200422764,21.314604200422764,21.314604200422764,21.779692200012505,r,1,0.4380677002482116,None,,,,711708,001,2024-08-23_11h25.57.494,StroopTask,2024.1.5,None,2024-08-23 11h26.05.343961 +0530,
BLUE,blue,C,b,5,0,20,3,21.81250230036676,,,,,21.78177950019017,21.81250230036676,22.285577000118792,22.285577000118792,22.285577000118792,22.745421700179577,b,1,0.43080139998346567,None,,,,711708,001,2024-08-23_11h25.57.494,StroopTask,2024.1.5,None,2024-08-23 11h26.05.343961 +0530,
RED,blue,I,b,5,1,21,1,22.7763416999951,,,,,22.74763450026512,22.7763416999951,23.247696400154382,23.247696400154382,23.247696400154382,23.81256700027734,b,1,0.5355607001110911,None,,,,711708,001,2024-08-23_11h25.57.494,StroopTask,2024.1.5,None,2024-08-23 11h26.05.343961 +0530,
RED,red,C,r,5,2,22,0,23.830725300125778,,,,,23.81488010007888,23.830725300125778,24.314028600230813,24.314028600230813,24.314028600230813,24.900208900216967,r,1,0.5732343001291156,None,,,,711708,001,2024-08-23_11h25.57.494,StroopTask,2024.1.5,None,2024-08-23 11h26.05.343961 +0530,
BLUE,blue,C,b,5,3,23,2,24.9263301002793,,,,,24.902506400365382,24.9263301002793,25.41475830040872,25.41475830040872,25.41475830040872,25.84042280027643,b,1,0.41934380028396845,None,,,,711708,001,2024-08-23_11h25.57.494,StroopTask,2024.1.5,None,2024-08-23 11h26.05.343961 +0530,
RED,red,C,r,6,0,24,0,25.875948200002313,,,,,25.84323040023446,25.875948200002313,26.347197600174695,26.347197600174695,26.347197600174695,26.967512200120836,r,1,0.6147238998673856,None,,,,711708,001,2024-08-23_11h25.57.494,StroopTask,2024.1.5,None,2024-08-23 11h26.05.343961 +0530,
BLUE,blue,C,b,6,1,25,2,26.992522400338203,,,,,26.96979400003329,26.992522400338203,27.480397100094706,27.480397100094706,27.480397100094706,27.933769000228494,b,1,0.44591950019821525,None,,,,711708,001,2024-08-23_11h25.57.494,StroopTask,2024.1.5,None,2024-08-23 11h26.05.343961 +0530,
BLUE,blue,C,b,6,2,26,3,27.959053700324148,,,,,27.936105800326914,27.959053700324148,28.44733070023358,28.44733070023358,28.44733070023358,28.86160170007497,b,1,0.4028306999243796,None,,,,711708,001,2024-08-23_11h25.57.494,StroopTask,2024.1.5,None,2024-08-23 11h26.05.343961 +0530,
RED,blue,I,b,6,3,27,1,28.892231700010598,,,,,28.863869900349528,28.892231700010598,29.36356359999627,29.36356359999627,29.36356359999627,30.016746800392866,b,1,0.6499159000813961,None,,,,711708,001,2024-08-23_11h25.57.494,StroopTask,2024.1.5,None,2024-08-23 11h26.05.343961 +0530,
BLUE,blue,C,b,7,0,28,3,30.04242720035836,,,,,30.01913330005482,30.04242720035836,30.531401900108904,30.531401900108904,30.531401900108904,30.98287559999153,b,1,0.433111899998039,None,,,,711708,001,2024-08-23_11h25.57.494,StroopTask,2024.1.5,None,2024-08-23 11h26.05.343961 +0530,
BLUE,blue,C,b,7,1,29,2,31.008673200383782,,,,,30.98517920030281,31.008673200383782,31.49659670004621,31.49659670004621,31.49659670004621,31.96594260027632,b,1,0.45512880012393,None,,,,711708,001,2024-08-23_11h25.57.494,StroopTask,2024.1.5,None,2024-08-23 11h26.05.343961 +0530,
RED,blue,I,b,7,2,30,1,31.991901700384915,,,,,31.968242600094527,31.991901700384915,32.479811100289226,32.479811100289226,32.479811100289226,32.8823994002305,b,1,0.38675899989902973,None,,,,711708,001,2024-08-23_11h25.57.494,StroopTask,2024.1.5,None,2024-08-23 11h26.05.343961 +0530,
RED,red,C,r,7,3,31,0,32.908350200392306,,,,,32.88460390036926,32.908350200392306,33.39709600014612,33.39709600014612,33.39709600014612,34.183208600152284,r,1,0.7827090998180211,None,,,,711708,001,2024-08-23_11h25.57.494,StroopTask,2024.1.5,None,2024-08-23 11h26.05.343961 +0530,
BLUE,blue,C,b,8,0,32,3,34.22468830039725,,,,,34.18542730016634,34.22468830039725,34.69635040033609,34.69635040033609,34.69635040033609,35.46519300015643,b,1,0.7465837998315692,None,,,,711708,001,2024-08-23_11h25.57.494,StroopTask,2024.1.5,None,2024-08-23 11h26.05.343961 +0530,
BLUE,blue,C,b,8,1,33,2,35.49149520043284,,,,,35.467481600120664,35.49149520043284,35.979435100220144,35.979435100220144,35.979435100220144,36.349457300268114,b,1,0.35711010033264756,None,,,,711708,001,2024-08-23_11h25.57.494,StroopTask,2024.1.5,None,2024-08-23 11h26.05.343961 +0530,
RED,blue,I,b,8,2,34,1,36.37468810006976,,,,,36.351699500344694,36.37468810006976,36.860483900178224,36.860483900178224,36.860483900178224,37.178906300105155,b,1,0.31610279995948076,None,,,,711708,001,2024-08-23_11h25.57.494,StroopTask,2024.1.5,None,2024-08-23 11h26.05.343961 +0530,
RED,red,C,r,8,3,35,0,37.19380250014365,,,,,37.18023100029677,37.19380250014365,37.69610520033166,37.69610520033166,37.69610520033166,38.39512090012431,r,1,0.6835210002027452,None,,,,711708,001,2024-08-23_11h25.57.494,StroopTask,2024.1.5,None,2024-08-23 11h26.05.343961 +0530,
BLUE,blue,C,b,9,0,36,2,38.40978390024975,,,,,38.395976500120014,38.40978390024975,38.911618100013584,38.911618100013584,38.911618100013584,39.53066090028733,b,1,0.6039645001292229,None,,,,711708,001,2024-08-23_11h25.57.494,StroopTask,2024.1.5,None,2024-08-23 11h26.05.343961 +0530,
BLUE,blue,C,b,9,1,37,3,39.55729780020192,,,,,39.53259860025719,39.55729780020192,40.04492860008031,40.04492860008031,40.04492860008031,40.38321110000834,b,1,0.33398810029029846,None,,,,711708,001,2024-08-23_11h25.57.494,StroopTask,2024.1.5,None,2024-08-23 11h26.05.343961 +0530,
RED,red,C,r,9,2,38,0,40.40737590007484,,,,,40.38555400026962,40.40737590007484,40.89737290004268,40.89737290004268,40.89737290004268,41.39769650017843,r,1,0.4864028999581933,None,,,,711708,001,2024-08-23_11h25.57.494,StroopTask,2024.1.5,None,2024-08-23 11h26.05.343961 +0530,
RED,blue,I,b,9,3,39,1,41.42399050015956,,,,,41.39973870012909,41.42399050015956,41.911124899983406,41.911124899983406,41.911124899983406,42.33100920030847,b,1,0.41684839967638254,None,,,,711708,001,2024-08-23_11h25.57.494,StroopTask,2024.1.5,None,2024-08-23 11h26.05.343961 +0530,
,,,,,,,,,,,,,,,,,,,,,,,42.33243120042607,42.35708690015599,43.34470000024885,711708,001,2024-08-23_11h25.57.494,StroopTask,2024.1.5,None,2024-08-23 11h26.05.343961 +0530,
