pos,corr_resp,trials.thisRepN,trials.thisTrialN,trials.thisN,trials.thisIndex,trials_2.thisRepN,trials_2.thisTrialN,trials_2.thisN,trials_2.thisIndex,thisRow.t,notes,trial.started,fixation.started,line1.started,line2.started,line3.started,line4.started,fixation.stopped,probe.started,key_resp.started,trial.stopped,key_resp.keys,key_resp.corr,key_resp.rt,key_resp.duration,participant,session,date,expName,psychopyVersion,frameRate,expStart,
-50,x,0,0,0,0,,,,,0.13748079992365092,,0.09821769990958273,0.13748079992365092,1.0262095999205485,1.0262095999205485,1.0262095999205485,1.0262095999205485,1.1599714999319986,2.043047899962403,2.043047899962403,2.923598299967125,x,1,0.8593806000426412,None,589830,001,2024-10-15_11h18.00.426,Session6_MotorSequenceLearning,2024.1.5,None,2024-10-15 11h18.06.440869 +0530,
150,v,0,1,1,1,,,,,2.959663199959323,,2.9318681999575347,2.959663199959323,3.959798499941826,3.959798499941826,3.959798499941826,3.959798499941826,3.992858299985528,4.959652799996547,4.959652799996547,5.562923099962063,v,1,0.5735325000714511,None,589830,001,2024-10-15_11h18.00.426,Session6_MotorSequenceLearning,2024.1.5,None,2024-10-15 11h18.06.440869 +0530,
50,c,0,2,2,2,,,,,5.592562099918723,,5.566415100009181,5.592562099918723,6.592747799935751,6.592747799935751,6.592747799935751,6.592747799935751,6.6254595000064,7.592523999977857,7.592523999977857,8.295502699911594,c,1,0.6757437000051141,None,589830,001,2024-10-15_11h18.00.426,Session6_MotorSequenceLearning,2024.1.5,None,2024-10-15 11h18.06.440869 +0530,
-150,z,0,3,3,3,,,,,8.325267400010489,,8.299400199903175,8.325267400010489,9.325125799980015,9.325125799980015,9.325125799980015,9.325125799980015,9.358105599996634,10.324614099925384,10.324614099925384,10.694589499966241,z,1,0.35454119998030365,None,589830,001,2024-10-15_11h18.00.426,Session6_MotorSequenceLearning,2024.1.5,None,2024-10-15 11h18.06.440869 +0530,
-50,x,1,0,4,0,,,,,10.725616100011393,,10.699268199969083,10.725616100011393,11.724655799916945,11.724655799916945,11.724655799916945,11.724655799916945,11.757948899990879,12.724766399944201,12.724766399944201,13.06233310000971,x,1,0.3219669999089092,None,589830,001,2024-10-15_11h18.00.426,Session6_MotorSequenceLearning,2024.1.5,None,2024-10-15 11h18.06.440869 +0530,
150,v,1,1,5,1,,,,,13.091271099983715,,13.068470599944703,13.091271099983715,14.090824599959888,14.090824599959888,14.090824599959888,14.090824599959888,14.124017199967057,15.090706399991177,15.090706399991177,15.494199199951254,v,1,0.3760469000553712,None,589830,001,2024-10-15_11h18.00.426,Session6_MotorSequenceLearning,2024.1.5,None,2024-10-15 11h18.06.440869 +0530,
50,c,1,2,6,2,,,,,15.524002999998629,,15.498091799905524,15.524002999998629,16.523735799943097,16.523735799943097,16.523735799943097,16.523735799943097,16.557112799957395,17.523724299971946,17.523724299971946,17.827213099924847,c,1,0.28188839997164905,None,589830,001,2024-10-15_11h18.00.426,Session6_MotorSequenceLearning,2024.1.5,None,2024-10-15 11h18.06.440869 +0530,
-150,z,1,3,7,3,,,,,17.861705799936317,,17.831067799939774,17.861705799936317,18.857114299898967,18.857114299898967,18.857114299898967,18.857114299898967,18.890429299906828,19.857883999939077,19.857883999939077,20.526557800010778,z,1,0.6472912000026554,None,589830,001,2024-10-15_11h18.00.426,Session6_MotorSequenceLearning,2024.1.5,None,2024-10-15 11h18.06.440869 +0530,
-50,x,2,0,8,0,,,,,20.5570995999733,,20.530405499972403,20.5570995999733,21.557530399993993,21.557530399993993,21.557530399993993,21.557530399993993,21.590079099987634,22.557147999992594,22.557147999992594,23.54292619996704,x,1,0.9761025999905542,None,589830,001,2024-10-15_11h18.00.426,Session6_MotorSequenceLearning,2024.1.5,None,2024-10-15 11h18.06.440869 +0530,
150,v,2,1,9,1,,,,,23.573412999976426,,23.546696199919097,23.573412999976426,24.573381099966355,24.573381099966355,24.573381099966355,24.573381099966355,24.606329899979755,25.5733299999265,25.5733299999265,25.87605349998921,v,1,0.28757200005929917,None,589830,001,2024-10-15_11h18.00.426,Session6_MotorSequenceLearning,2024.1.5,None,2024-10-15 11h18.06.440869 +0530,
50,c,2,2,10,2,,,,,25.906156499986537,,25.879498299909756,25.906156499986537,26.90623829991091,26.90623829991091,26.90623829991091,26.90623829991091,26.939072699984536,27.906219299999066,27.906219299999066,28.209653900004923,c,1,0.29636060004122555,None,589830,001,2024-10-15_11h18.00.426,Session6_MotorSequenceLearning,2024.1.5,None,2024-10-15 11h18.06.440869 +0530,
-150,z,2,3,11,3,,,,,28.239173299982212,,28.21437399997376,28.239173299982212,29.23918519995641,29.23918519995641,29.23918519995641,29.23918519995641,29.272111099911854,30.23919599992223,30.23919599992223,31.27549289993476,z,1,1.0124512000475079,None,589830,001,2024-10-15_11h18.00.426,Session6_MotorSequenceLearning,2024.1.5,None,2024-10-15 11h18.06.440869 +0530,
-50,x,3,0,12,0,,,,,31.30555019993335,,31.278939399984665,31.30555019993335,32.30569790001027,32.30569790001027,32.30569790001027,32.30569790001027,32.338656899984926,33.305266899988055,33.305266899988055,34.191365999984555,x,1,0.8711063999217004,None,589830,001,2024-10-15_11h18.00.426,Session6_MotorSequenceLearning,2024.1.5,None,2024-10-15 11h18.06.440869 +0530,
150,v,3,1,13,1,,,,,34.22165349998977,,34.1958151999861,34.22165349998977,35.221577399992384,35.221577399992384,35.221577399992384,35.221577399992384,35.254982299986295,36.22176139999647,36.22176139999647,36.70823499991093,v,1,0.48258099996019155,None,589830,001,2024-10-15_11h18.00.426,Session6_MotorSequenceLearning,2024.1.5,None,2024-10-15 11h18.06.440869 +0530,
50,c,3,2,14,2,,,,,36.7380766000133,,36.71185099997092,36.7380766000133,37.73860669997521,37.73860669997521,37.73860669997521,37.73860669997521,37.77153809997253,38.75477439991664,38.75477439991664,39.25801449990831,c,1,0.4758263999829069,None,589830,001,2024-10-15_11h18.00.426,Session6_MotorSequenceLearning,2024.1.5,None,2024-10-15 11h18.06.440869 +0530,
-150,z,3,3,15,3,,,,,39.28809319995344,,39.261596599943005,39.28809319995344,40.28765869990457,40.28765869990457,40.28765869990457,40.28765869990457,40.320814199978486,41.28816889994778,41.28816889994778,41.67562829994131,z,1,0.34858400002121925,None,589830,001,2024-10-15_11h18.00.426,Session6_MotorSequenceLearning,2024.1.5,None,2024-10-15 11h18.06.440869 +0530,
-50,x,4,0,16,0,,,,,41.70525669993367,,41.68368599994574,41.70525669993367,42.70482390001416,42.70482390001416,42.70482390001416,42.70482390001416,42.73722999996971,43.70378639991395,43.70378639991395,44.5065868999809,x,1,0.7821259000338614,None,589830,001,2024-10-15_11h18.00.426,Session6_MotorSequenceLearning,2024.1.5,None,2024-10-15 11h18.06.440869 +0530,
150,v,4,1,17,1,,,,,44.52259259996936,,44.510536399902776,44.52259259996936,45.53676489996724,45.53676489996724,45.53676489996724,45.53676489996724,45.53676489996724,46.5365707000019,46.5365707000019,47.17352089995984,v,1,0.6266842000186443,None,589830,001,2024-10-15_11h18.00.426,Session6_MotorSequenceLearning,2024.1.5,None,2024-10-15 11h18.06.440869 +0530,
50,c,4,2,18,2,,,,,47.20313239993993,,47.17777839989867,47.20313239993993,48.203229999984615,48.203229999984615,48.203229999984615,48.203229999984615,48.23655139992479,49.219489399925806,49.219489399925806,49.55619279993698,c,1,0.31944099999964237,None,589830,001,2024-10-15_11h18.00.426,Session6_MotorSequenceLearning,2024.1.5,None,2024-10-15 11h18.06.440869 +0530,
-150,z,4,3,19,3,,,,,49.5867454999825,,49.559792799991556,49.5867454999825,50.58671249996405,50.58671249996405,50.58671249996405,50.58671249996405,50.61941609997302,51.586111899930984,51.586111899930984,51.88958670001011,z,1,0.29557370010297745,None,589830,001,2024-10-15_11h18.00.426,Session6_MotorSequenceLearning,2024.1.5,None,2024-10-15 11h18.06.440869 +0530,
-50,x,5,0,20,0,,,,,51.91947729990352,,51.89420689991675,51.91947729990352,52.91954629996326,52.91954629996326,52.91954629996326,52.91954629996326,52.95244999998249,53.935815099976026,53.935815099976026,54.672501799999736,x,1,0.7288931999355555,None,589830,001,2024-10-15_11h18.00.426,Session6_MotorSequenceLearning,2024.1.5,None,2024-10-15 11h18.06.440869 +0530,
150,v,5,1,21,1,,,,,54.703252199920826,,54.677275999914855,54.703252199920826,55.701937199919485,55.701937199919485,55.701937199919485,55.701937199919485,55.73571049992461,56.702412299928255,56.702412299928255,57.31012199993711,v,1,0.5732981000328436,None,589830,001,2024-10-15_11h18.00.426,Session6_MotorSequenceLearning,2024.1.5,None,2024-10-15 11h18.06.440869 +0530,
50,c,5,2,22,2,,,,,57.33553239994217,,57.31390289997216,57.33553239994217,58.3526136999717,58.3526136999717,58.3526136999717,58.3526136999717,58.385902699898,59.35215719998814,59.35215719998814,59.95444999996107,c,1,0.5776463999645784,None,589830,001,2024-10-15_11h18.00.426,Session6_MotorSequenceLearning,2024.1.5,None,2024-10-15 11h18.06.440869 +0530,
-150,z,5,3,23,3,,,,,59.98540649993811,,59.95834719995037,59.98540649993811,60.985712999943644,60.985712999943644,60.985712999943644,60.985712999943644,61.01839979994111,61.9842384000076,61.9842384000076,62.61893789994065,z,1,0.6181352999992669,None,589830,001,2024-10-15_11h18.00.426,Session6_MotorSequenceLearning,2024.1.5,None,2024-10-15 11h18.06.440869 +0530,
-50,x,6,0,24,0,,,,,62.63583839999046,,62.6209630999947,62.63583839999046,63.633456200012006,63.633456200012006,63.633456200012006,63.633456200012006,63.65183659992181,64.65379689994734,64.65379689994734,65.31988719990477,x,1,0.6407170998863876,None,589830,001,2024-10-15_11h18.00.426,Session6_MotorSequenceLearning,2024.1.5,None,2024-10-15 11h18.06.440869 +0530,
150,v,6,1,25,1,,,,,65.3358983999351,,65.32334249990527,65.3358983999351,66.35085559997242,66.35085559997242,66.35085559997242,66.35085559997242,66.35085559997242,67.35067109996453,67.35067109996453,67.96970589994453,v,1,0.6053418000228703,None,589830,001,2024-10-15_11h18.00.426,Session6_MotorSequenceLearning,2024.1.5,None,2024-10-15 11h18.06.440869 +0530,
50,c,6,2,26,2,,,,,67.98438629996963,,67.9716228999896,67.98438629996963,69.0001968999859,69.0001968999859,69.0001968999859,69.0001968999859,69.0001968999859,70.000258199987,70.000258199987,70.53796549991239,c,1,0.5313382999738678,None,589830,001,2024-10-15_11h18.00.426,Session6_MotorSequenceLearning,2024.1.5,None,2024-10-15 11h18.06.440869 +0530,
-150,z,6,3,27,3,,,,,70.5669109999435,,70.54178259999026,70.5669109999435,71.5848787999712,71.5848787999712,71.5848787999712,71.5848787999712,71.61750069994014,72.58375739993062,72.58375739993062,72.95363969996106,z,1,0.3412511000642553,None,589830,001,2024-10-15_11h18.00.426,Session6_MotorSequenceLearning,2024.1.5,None,2024-10-15 11h18.06.440869 +0530,
-50,x,7,0,28,0,,,,,72.98417329997756,,72.95718839997426,72.98417329997756,73.98343629995361,73.98343629995361,73.98343629995361,73.98343629995361,74.01667129993439,74.98324569989927,74.98324569989927,75.41989069990814,x,1,0.4324870000127703,None,589830,001,2024-10-15_11h18.00.426,Session6_MotorSequenceLearning,2024.1.5,None,2024-10-15 11h18.06.440869 +0530,
150,v,7,1,29,1,,,,,75.45064799999818,,75.42342699994333,75.45064799999818,76.45011579990387,76.45011579990387,76.45011579990387,76.45011579990387,76.48318340000696,77.44996639993042,77.44996639993042,77.78584659995977,v,1,0.32101529999636114,None,589830,001,2024-10-15_11h18.00.426,Session6_MotorSequenceLearning,2024.1.5,None,2024-10-15 11h18.06.440869 +0530,
50,c,7,2,30,2,,,,,77.82287899998482,,77.79097349999938,77.82287899998482,78.80066830001306,78.80066830001306,78.80066830001306,78.80066830001306,78.83275549998507,79.83303239999805,79.83303239999805,80.3021886999486,c,1,0.44157499994616956,None,589830,001,2024-10-15_11h18.00.426,Session6_MotorSequenceLearning,2024.1.5,None,2024-10-15 11h18.06.440869 +0530,
-150,z,7,3,31,3,,,,,80.33278369996697,,80.3067061000038,80.33278369996697,81.33257749991026,81.33257749991026,81.33257749991026,81.33257749991026,81.36562599998433,82.33284339995589,82.33284339995589,82.70198849996086,z,1,0.3556612000102177,None,589830,001,2024-10-15_11h18.00.426,Session6_MotorSequenceLearning,2024.1.5,None,2024-10-15 11h18.06.440869 +0530,
-50,x,8,0,32,0,,,,,82.73218169994652,,82.70591409993358,82.73218169994652,83.73254080000333,83.73254080000333,83.73254080000333,83.73254080000333,83.76553639990743,84.73258909990545,84.73258909990545,85.63467579998542,x,1,0.869664300000295,None,589830,001,2024-10-15_11h18.00.426,Session6_MotorSequenceLearning,2024.1.5,None,2024-10-15 11h18.06.440869 +0530,
150,v,8,1,33,1,,,,,85.66496859991457,,85.6385222999379,85.66496859991457,86.66474279994145,86.66474279994145,86.66474279994145,86.66474279994145,86.69808279990684,87.66474639996886,87.66474639996886,87.86818629992194,v,1,0.1845513000153005,None,589830,001,2024-10-15_11h18.00.426,Session6_MotorSequenceLearning,2024.1.5,None,2024-10-15 11h18.06.440869 +0530,
50,c,8,2,34,2,,,,,87.89806649996899,,87.87223689991515,87.89806649996899,88.89827439992223,88.89827439992223,88.89827439992223,88.89827439992223,88.93162699998356,89.89786119991913,89.89786119991913,90.1867638999829,c,1,0.2779954000143334,None,589830,001,2024-10-15_11h18.00.426,Session6_MotorSequenceLearning,2024.1.5,None,2024-10-15 11h18.06.440869 +0530,
-150,z,8,3,35,3,,,,,90.21478899999056,,90.19184330001008,90.21478899999056,91.21452849998605,91.21452849998605,91.21452849998605,91.21452849998605,91.2482157999184,92.23101300001144,92.23101300001144,92.7672453999985,z,1,0.5213295000139624,None,589830,001,2024-10-15_11h18.00.426,Session6_MotorSequenceLearning,2024.1.5,None,2024-10-15 11h18.06.440869 +0530,
-50,x,9,0,36,0,,,,,92.7985398999881,,92.77097399998456,92.7985398999881,93.79817049996927,93.79817049996927,93.79817049996927,93.79817049996927,93.83038229995873,94.79766569996718,94.79766569996718,95.36711260001175,x,1,0.5472496000584215,None,589830,001,2024-10-15_11h18.00.426,Session6_MotorSequenceLearning,2024.1.5,None,2024-10-15 11h18.06.440869 +0530,
150,v,9,1,37,1,,,,,95.39726989995688,,95.37107699993066,95.39726989995688,96.39824529993348,96.39824529993348,96.39824529993348,96.39824529993348,96.43108429992571,97.39761459990405,97.39761459990405,97.76645619992632,v,1,0.35723889991641045,None,589830,001,2024-10-15_11h18.00.426,Session6_MotorSequenceLearning,2024.1.5,None,2024-10-15 11h18.06.440869 +0530,
50,c,9,2,38,2,,,,,97.79687969991937,,97.77105909993406,97.79687969991937,98.78073819994461,98.78073819994461,98.78073819994461,98.78073819994461,98.79745139996521,99.81322929996531,99.81322929996531,100.18283399997745,c,1,0.34648189996369183,None,589830,001,2024-10-15_11h18.00.426,Session6_MotorSequenceLearning,2024.1.5,None,2024-10-15 11h18.06.440869 +0530,
-150,z,9,3,39,3,,,,,100.21340229990892,,100.18730369990226,100.21340229990892,101.19716119999066,101.19716119999066,101.19716119999066,101.19716119999066,101.21385840000585,102.22935089992825,102.22935089992825,102.63264139997773,z,1,0.3826638999162242,None,589830,001,2024-10-15_11h18.00.426,Session6_MotorSequenceLearning,2024.1.5,None,2024-10-15 11h18.06.440869 +0530,
-50,x,10,0,40,0,,,,,102.66259869991336,,102.63685040001292,102.66259869991336,103.66288369998801,103.66288369998801,103.66288369998801,103.66288369998801,103.69588959997054,104.67962499998976,104.67962499998976,105.28259269997943,x,1,0.5761831999989226,None,589830,001,2024-10-15_11h18.00.426,Session6_MotorSequenceLearning,2024.1.5,None,2024-10-15 11h18.06.440869 +0530,
150,v,10,1,41,1,,,,,105.31212479993701,,105.28706599993166,105.31212479993701,106.31208689999767,106.31208689999767,106.31208689999767,106.31208689999767,106.34600719995797,107.3122105000075,107.3122105000075,108.9490836999612,v,1,1.6213404000736773,None,589830,001,2024-10-15_11h18.00.426,Session6_MotorSequenceLearning,2024.1.5,None,2024-10-15 11h18.06.440869 +0530,
50,c,10,2,42,2,,,,,108.9784917999059,,108.95313699997496,108.9784917999059,109.99459139991086,109.99459139991086,109.99459139991086,109.99459139991086,110.0132811999647,110.97830019996036,110.97830019996036,111.41522399999667,c,1,0.4047828000038862,None,589830,001,2024-10-15_11h18.00.426,Session6_MotorSequenceLearning,2024.1.5,None,2024-10-15 11h18.06.440869 +0530,
-150,z,10,3,43,3,,,,,111.44531499990262,,111.41877969994675,111.44531499990262,112.44534679991193,112.44534679991193,112.44534679991193,112.44534679991193,112.47828609996941,113.44501969998237,113.44501969998237,113.78271810000297,z,1,0.33221440005581826,None,589830,001,2024-10-15_11h18.00.426,Session6_MotorSequenceLearning,2024.1.5,None,2024-10-15 11h18.06.440869 +0530,
-50,x,11,0,44,0,,,,,113.81252239993773,,113.7865707000019,113.81252239993773,114.80965589999687,114.80965589999687,114.80965589999687,114.80965589999687,114.83041269995738,115.81097829993814,115.81097829993814,116.53242179995868,x,1,0.6717142999405041,None,589830,001,2024-10-15_11h18.00.426,Session6_MotorSequenceLearning,2024.1.5,None,2024-10-15 11h18.06.440869 +0530,
150,v,11,1,45,1,,,,,116.56213539990131,,116.53782719990704,116.56213539990131,117.54465799999889,117.54465799999889,117.54465799999889,117.54465799999889,117.56108719995245,118.56083539989777,118.56083539989777,118.99725029990077,v,1,0.4025564999319613,None,589830,001,2024-10-15_11h18.00.426,Session6_MotorSequenceLearning,2024.1.5,None,2024-10-15 11h18.06.440869 +0530,
50,c,11,2,46,2,,,,,119.0129468999803,,119.00076869991608,119.0129468999803,120.02717289992142,120.02717289992142,120.02717289992142,120.02717289992142,120.02717289992142,121.02816839993466,121.02816839993466,121.36348439997528,c,1,0.31538539996836334,None,589830,001,2024-10-15_11h18.00.426,Session6_MotorSequenceLearning,2024.1.5,None,2024-10-15 11h18.06.440869 +0530,
-150,z,11,3,47,3,,,,,121.3983859999571,,121.36727329995483,121.3983859999571,122.39412179996725,122.39412179996725,122.39412179996725,122.39412179996725,122.42665829998441,123.39387239993084,123.39387239993084,123.91371599992272,z,1,0.4957797999959439,None,589830,001,2024-10-15_11h18.00.426,Session6_MotorSequenceLearning,2024.1.5,None,2024-10-15 11h18.06.440869 +0530,
-50,x,12,0,48,0,,,,,123.94351239991374,,123.91778119991068,123.94351239991374,124.94297989993356,124.94297989993356,124.94297989993356,124.94297989993356,124.97629279992543,125.94344569998793,125.94344569998793,126.49697179999202,x,1,0.5458861000370234,None,589830,001,2024-10-15_11h18.00.426,Session6_MotorSequenceLearning,2024.1.5,None,2024-10-15 11h18.06.440869 +0530,
150,v,12,1,49,1,,,,,126.5269871999044,,126.50195029994939,126.5269871999044,127.52658329997212,127.52658329997212,127.52658329997212,127.52658329997212,127.56001469993498,128.52635389997158,128.52635389997158,129.2292878999142,v,1,0.6948406000155956,None,589830,001,2024-10-15_11h18.00.426,Session6_MotorSequenceLearning,2024.1.5,None,2024-10-15 11h18.06.440869 +0530,
50,c,12,2,50,2,,,,,129.25920249999035,,129.2335405999329,129.25920249999035,130.259365899954,130.259365899954,130.259365899954,130.259365899954,130.29274299996905,131.25919039989822,131.25919039989822,131.9290469000116,c,1,0.6543343999655917,None,589830,001,2024-10-15_11h18.00.426,Session6_MotorSequenceLearning,2024.1.5,None,2024-10-15 11h18.06.440869 +0530,
-150,z,12,3,51,3,,,,,131.9591612999793,,131.93259280000348,131.9591612999793,132.95970809995197,132.95970809995197,132.95970809995197,132.95970809995197,132.99244089995045,133.9590805999469,133.9590805999469,134.56218699994497,z,1,0.5914413999998942,None,589830,001,2024-10-15_11h18.00.426,Session6_MotorSequenceLearning,2024.1.5,None,2024-10-15 11h18.06.440869 +0530,
-50,x,13,0,52,0,,,,,134.5920146999415,,134.5659829999786,134.5920146999415,135.59185009996872,135.59185009996872,135.59185009996872,135.59185009996872,135.6257495000027,136.59256519994233,136.59256519994233,136.92790449992754,x,1,0.30772679997608066,None,589830,001,2024-10-15_11h18.00.426,Session6_MotorSequenceLearning,2024.1.5,None,2024-10-15 11h18.06.440869 +0530,
150,v,13,1,53,1,,,,,136.9586655999301,,136.9327639999101,136.9586655999301,137.95809039997403,137.95809039997403,137.95809039997403,137.95809039997403,137.99155429995153,138.95808339992072,138.95808339992072,139.5610267999582,v,1,0.5793220000341535,None,589830,001,2024-10-15_11h18.00.426,Session6_MotorSequenceLearning,2024.1.5,None,2024-10-15 11h18.06.440869 +0530,
50,c,13,2,54,2,,,,,139.59231420001015,,139.56463039992377,139.59231420001015,140.59106249990873,140.59106249990873,140.59106249990873,140.59106249990873,140.62484870001208,141.59139680000953,141.59139680000953,142.16196870000567,c,1,0.5666835999581963,None,589830,001,2024-10-15_11h18.00.426,Session6_MotorSequenceLearning,2024.1.5,None,2024-10-15 11h18.06.440869 +0530,
-150,z,13,3,55,3,,,,,142.19119609997142,,142.165495299967,142.19119609997142,143.19151109992526,143.19151109992526,143.19151109992526,143.19151109992526,143.2248905999586,144.19102629995905,144.19102629995905,144.69361769990064,z,1,0.46775099996011704,None,589830,001,2024-10-15_11h18.00.426,Session6_MotorSequenceLearning,2024.1.5,None,2024-10-15 11h18.06.440869 +0530,
-50,x,14,0,56,0,,,,,144.7241818999173,,144.69721219991334,144.7241818999173,145.72365659999195,145.72365659999195,145.72365659999195,145.72365659999195,145.7576401999686,146.7244544000132,146.7244544000132,147.3611205999041,x,1,0.6309573999606073,None,589830,001,2024-10-15_11h18.00.426,Session6_MotorSequenceLearning,2024.1.5,None,2024-10-15 11h18.06.440869 +0530,
150,v,14,1,57,1,,,,,147.39167339995038,,147.36587009998038,147.39167339995038,148.39103910000995,148.39103910000995,148.39103910000995,148.39103910000995,148.42375329998322,149.39032399991993,149.39032399991993,149.99333560001105,v,1,0.5886326000327244,None,589830,001,2024-10-15_11h18.00.426,Session6_MotorSequenceLearning,2024.1.5,None,2024-10-15 11h18.06.440869 +0530,
50,c,14,2,58,2,,,,,150.02513789990917,,149.99699579994194,150.02513789990917,151.02315319993068,151.02315319993068,151.02315319993068,151.02315319993068,151.05685009993613,152.00755799992476,152.00755799992476,152.47654519998468,c,1,0.46579389995895326,None,589830,001,2024-10-15_11h18.00.426,Session6_MotorSequenceLearning,2024.1.5,None,2024-10-15 11h18.06.440869 +0530,
-150,z,14,3,59,3,,,,,152.49072100000922,,152.4792803999735,152.49072100000922,153.49047219997738,153.49047219997738,153.49047219997738,153.49047219997738,153.49047219997738,154.4902658999199,154.4902658999199,155.04324359993916,z,1,0.5493333999766037,None,589830,001,2024-10-15_11h18.00.426,Session6_MotorSequenceLearning,2024.1.5,None,2024-10-15 11h18.06.440869 +0530,
-50,x,15,0,60,0,,,,,155.07236130000092,,155.04639849998057,155.07236130000092,156.0723993999418,156.0723993999418,156.0723993999418,156.0723993999418,156.09151449997444,157.0726792999776,157.0726792999776,157.67644189996645,x,1,0.6003678999841213,None,589830,001,2024-10-15_11h18.00.426,Session6_MotorSequenceLearning,2024.1.5,None,2024-10-15 11h18.06.440869 +0530,
150,v,15,1,61,1,,,,,157.70533509994857,,157.68006849999074,157.70533509994857,158.70519199990667,158.70519199990667,158.70519199990667,158.70519199990667,158.72451999993064,159.7224058000138,159.7224058000138,160.32839439995587,v,1,0.5924456999637187,None,589830,001,2024-10-15_11h18.00.426,Session6_MotorSequenceLearning,2024.1.5,None,2024-10-15 11h18.06.440869 +0530,
50,c,15,2,62,2,,,,,160.35669349995442,,160.33716609992553,160.35669349995442,161.3599927999312,161.3599927999312,161.3599927999312,161.3599927999312,161.38946889992803,162.3553062999854,162.3553062999854,162.9746509999968,c,1,0.5859642000868917,None,589830,001,2024-10-15_11h18.00.426,Session6_MotorSequenceLearning,2024.1.5,None,2024-10-15 11h18.06.440869 +0530,
-150,z,15,3,63,3,,,,,163.00547460000962,,162.9789093999425,163.00547460000962,164.0222005000105,164.0222005000105,164.0222005000105,164.0222005000105,164.05593589995988,164.9889662999194,164.9889662999194,165.65831939992495,z,1,0.6645501999882981,None,589830,001,2024-10-15_11h18.00.426,Session6_MotorSequenceLearning,2024.1.5,None,2024-10-15 11h18.06.440869 +0530,
-50,x,16,0,64,0,,,,,165.68854219990317,,165.66295989998616,165.68854219990317,166.68803249998018,166.68803249998018,166.68803249998018,166.68803249998018,166.72106289991643,167.6880137999542,167.6880137999542,168.29142429993954,x,1,0.5809384000021964,None,589830,001,2024-10-15_11h18.00.426,Session6_MotorSequenceLearning,2024.1.5,None,2024-10-15 11h18.06.440869 +0530,
150,v,16,1,65,1,,,,,168.3212182999123,,168.2953427999746,168.3212182999123,169.32139639998786,169.32139639998786,169.32139639998786,169.32139639998786,169.35403649997897,170.32128849998116,170.32128849998116,171.00769409991335,v,1,0.6749914999818429,None,589830,001,2024-10-15_11h18.00.426,Session6_MotorSequenceLearning,2024.1.5,None,2024-10-15 11h18.06.440869 +0530,
50,c,16,2,66,2,,,,,171.03702779999003,,171.01344609993976,171.03702779999003,172.03715369990095,172.03715369990095,172.03715369990095,172.03715369990095,172.0712125999853,173.03730709990487,173.03730709990487,173.50661839998793,c,1,0.4391507999971509,None,589830,001,2024-10-15_11h18.00.426,Session6_MotorSequenceLearning,2024.1.5,None,2024-10-15 11h18.06.440869 +0530,
-150,z,16,3,67,3,,,,,173.5368342999136,,173.5106567000039,173.5368342999136,174.5367584999185,174.5367584999185,174.5367584999185,174.5367584999185,174.5701978999423,175.53663879993837,175.53663879993837,176.24010819999967,z,1,0.6997235999442637,None,589830,001,2024-10-15_11h18.00.426,Session6_MotorSequenceLearning,2024.1.5,None,2024-10-15 11h18.06.440869 +0530,
-50,x,17,0,68,0,,,,,176.27065879991278,,176.24465189990588,176.27065879991278,177.27052609995008,177.27052609995008,177.27052609995008,177.27052609995008,177.303176999907,178.26970730000176,178.26970730000176,178.8399875999894,x,1,0.5416138999862596,None,589830,001,2024-10-15_11h18.00.426,Session6_MotorSequenceLearning,2024.1.5,None,2024-10-15 11h18.06.440869 +0530,
150,v,17,1,69,1,,,,,178.8694406999275,,178.84359599999152,178.8694406999275,179.86975079996046,179.86975079996046,179.86975079996046,179.86975079996046,179.90331510000397,180.870090899989,180.870090899989,181.4395130999619,v,1,0.5399974000174552,None,589830,001,2024-10-15_11h18.00.426,Session6_MotorSequenceLearning,2024.1.5,None,2024-10-15 11h18.06.440869 +0530,
50,c,17,2,70,2,,,,,181.46929139993154,,181.44340009998996,181.46929139993154,182.46915109991096,182.46915109991096,182.46915109991096,182.46915109991096,182.50251629995182,183.4690526999766,183.4690526999766,183.8724038999062,c,1,0.3820869999472052,None,589830,001,2024-10-15_11h18.00.426,Session6_MotorSequenceLearning,2024.1.5,None,2024-10-15 11h18.06.440869 +0530,
-150,z,17,3,71,3,,,,,183.9020854999544,,183.87665899994317,183.9020854999544,184.90207239997108,184.90207239997108,184.90207239997108,184.90207239997108,184.93594429991208,185.90219739999156,185.90219739999156,186.38887839997187,z,1,0.45213170000351965,None,589830,001,2024-10-15_11h18.00.426,Session6_MotorSequenceLearning,2024.1.5,None,2024-10-15 11h18.06.440869 +0530,
-50,x,18,0,72,0,,,,,186.4186121999519,,186.39368459989782,186.4186121999519,187.41885269992054,187.41885269992054,187.41885269992054,187.41885269992054,187.45232789998408,188.41838859999552,188.41838859999552,189.02213569998275,x,1,0.5862984000705183,None,589830,001,2024-10-15_11h18.00.426,Session6_MotorSequenceLearning,2024.1.5,None,2024-10-15 11h18.06.440869 +0530,
150,v,18,1,73,1,,,,,189.05180869996548,,189.02695339999627,189.05180869996548,190.05145279993303,190.05145279993303,190.05145279993303,190.05145279993303,190.08517789992038,191.05141809990164,191.05141809990164,191.68796369992197,v,1,0.6129953999770805,None,589830,001,2024-10-15_11h18.00.426,Session6_MotorSequenceLearning,2024.1.5,None,2024-10-15 11h18.06.440869 +0530,
50,c,18,2,74,2,,,,,191.72330209997017,,191.6927735999925,191.72330209997017,192.71826909994707,192.71826909994707,192.71826909994707,192.71826909994707,192.7512604999356,193.71773589996155,193.71773589996155,194.22065699996892,c,1,0.4786064999643713,None,589830,001,2024-10-15_11h18.00.426,Session6_MotorSequenceLearning,2024.1.5,None,2024-10-15 11h18.06.440869 +0530,
-150,z,18,3,75,3,,,,,194.25133259990253,,194.2247244999744,194.25133259990253,195.25093390000984,195.25093390000984,195.25093390000984,195.25093390000984,195.28454429993872,196.25059209996834,196.25059209996834,196.85518039995804,z,1,0.5867684999248013,None,589830,001,2024-10-15_11h18.00.426,Session6_MotorSequenceLearning,2024.1.5,None,2024-10-15 11h18.06.440869 +0530,
-50,x,19,0,76,0,,,,,196.8840897999471,,196.86052129999734,196.8840897999471,197.88379260001238,197.88379260001238,197.88379260001238,197.88379260001238,197.91766019992065,198.88379069999792,198.88379069999792,199.5537270999048,x,1,0.6392243000445887,None,589830,001,2024-10-15_11h18.00.426,Session6_MotorSequenceLearning,2024.1.5,None,2024-10-15 11h18.06.440869 +0530,
150,v,19,1,77,1,,,,,199.5837457999587,,199.55744839995168,199.5837457999587,200.5839157999726,200.5839157999726,200.5839157999726,200.5839157999726,200.61673919996247,201.58372499991674,201.58372499991674,202.40312779997475,v,1,0.7921086000278592,None,589830,001,2024-10-15_11h18.00.426,Session6_MotorSequenceLearning,2024.1.5,None,2024-10-15 11h18.06.440869 +0530,
50,c,19,2,78,2,,,,,202.43479540001135,,202.40681319998112,202.43479540001135,203.4336028000107,203.4336028000107,203.4336028000107,203.4336028000107,203.46635299990885,204.4337252000114,204.4337252000114,204.9359747999115,c,1,0.4707567000295967,None,589830,001,2024-10-15_11h18.00.426,Session6_MotorSequenceLearning,2024.1.5,None,2024-10-15 11h18.06.440869 +0530,
-150,z,19,3,79,3,,,,,204.96662359999027,,204.93966569995973,204.96662359999027,205.9668115999084,205.9668115999084,205.9668115999084,205.9668115999084,205.99988219991792,206.96639359998517,206.96639359998517,207.6691189999692,z,1,0.684841200010851,None,589830,001,2024-10-15_11h18.00.426,Session6_MotorSequenceLearning,2024.1.5,None,2024-10-15 11h18.06.440869 +0530,
-50,x,20,0,80,0,,,,,207.69918009999674,,207.67302180000115,207.69918009999674,208.7166832999792,208.7166832999792,208.7166832999792,208.7166832999792,208.7166832999792,209.71708319999743,209.71708319999743,210.2531289999606,x,1,0.5091010999167338,None,589830,001,2024-10-15_11h18.00.426,Session6_MotorSequenceLearning,2024.1.5,None,2024-10-15 11h18.06.440869 +0530,
150,v,20,1,81,1,,,,,210.28278329991736,,210.25790929992218,210.28278329991736,211.28306049993262,211.28306049993262,211.28306049993262,211.28306049993262,211.31612669990864,212.28236889990512,212.28236889990512,212.5860996999545,v,1,0.2893472999567166,None,589830,001,2024-10-15_11h18.00.426,Session6_MotorSequenceLearning,2024.1.5,None,2024-10-15 11h18.06.440869 +0530,
50,c,20,2,82,2,,,,,212.61555139999837,,212.59011499991175,212.61555139999837,213.61514369992074,213.61514369992074,213.61514369992074,213.61514369992074,213.64906189998146,214.61516519996803,214.61516519996803,215.0182176999515,c,1,0.3692085000220686,None,589830,001,2024-10-15_11h18.00.426,Session6_MotorSequenceLearning,2024.1.5,None,2024-10-15 11h18.06.440869 +0530,
-150,z,20,3,83,3,,,,,215.04832109995186,,215.02184569998644,215.04832109995186,216.04881109995767,216.04881109995767,216.04881109995767,216.04881109995767,216.08183109993115,217.0485752999084,217.0485752999084,217.68440229992848,z,1,0.6195899000158533,None,589830,001,2024-10-15_11h18.00.426,Session6_MotorSequenceLearning,2024.1.5,None,2024-10-15 11h18.06.440869 +0530,
-50,x,21,0,84,0,,,,,217.7150113999378,,217.68837659992278,217.7150113999378,218.7149752000114,218.7149752000114,218.7149752000114,218.7149752000114,218.74761159997433,219.71506039996166,219.71506039996166,220.08456579991616,x,1,0.3425107999937609,None,589830,001,2024-10-15_11h18.00.426,Session6_MotorSequenceLearning,2024.1.5,None,2024-10-15 11h18.06.440869 +0530,
150,v,21,1,85,1,,,,,220.11455820000265,,220.08841389999725,220.11455820000265,221.11436779994983,221.11436779994983,221.11436779994983,221.11436779994983,221.14836519991513,222.1143013999099,222.1143013999099,222.71695669996552,v,1,0.5945929000154138,None,589830,001,2024-10-15_11h18.00.426,Session6_MotorSequenceLearning,2024.1.5,None,2024-10-15 11h18.06.440869 +0530,
50,c,21,2,86,2,,,,,222.74763479991816,,222.72063949995209,222.74763479991816,223.7474879999645,223.7474879999645,223.7474879999645,223.7474879999645,223.78092259995174,224.74765419994947,224.74765419994947,225.25028129993007,c,1,0.47444260003976524,None,589830,001,2024-10-15_11h18.00.426,Session6_MotorSequenceLearning,2024.1.5,None,2024-10-15 11h18.06.440869 +0530,
-150,z,21,3,87,3,,,,,225.28050859994255,,225.25389479997102,225.28050859994255,226.28016449999996,226.28016449999996,226.28016449999996,226.28016449999996,226.31404989992734,227.28030539990868,227.28030539990868,227.78259909991175,z,1,0.4914426999166608,None,589830,001,2024-10-15_11h18.00.426,Session6_MotorSequenceLearning,2024.1.5,None,2024-10-15 11h18.06.440869 +0530,
-50,x,22,0,88,0,,,,,227.8134807999013,,227.78610739996657,227.8134807999013,228.81372699991334,228.81372699991334,228.81372699991334,228.81372699991334,228.84619859990198,229.81340029998682,229.81340029998682,230.28332879999653,x,1,0.44456820003688335,None,589830,001,2024-10-15_11h18.00.426,Session6_MotorSequenceLearning,2024.1.5,None,2024-10-15 11h18.06.440869 +0530,
150,v,22,1,89,1,,,,,230.3137001999421,,230.28683269990142,230.3137001999421,231.31299539993051,231.31299539993051,231.31299539993051,231.31299539993051,231.34683639998548,232.3130590999499,232.3130590999499,232.7491660999367,v,1,0.4018453999888152,None,589830,001,2024-10-15_11h18.00.426,Session6_MotorSequenceLearning,2024.1.5,None,2024-10-15 11h18.06.440869 +0530,
50,c,22,2,90,2,,,,,232.77945759997237,,232.75302469998132,232.77945759997237,233.7796885999851,233.7796885999851,233.7796885999851,233.7796885999851,233.81317709991708,234.77880789991468,234.77880789991468,235.11608289997093,c,1,0.32620799995493144,None,589830,001,2024-10-15_11h18.00.426,Session6_MotorSequenceLearning,2024.1.5,None,2024-10-15 11h18.06.440869 +0530,
-150,z,22,3,91,3,,,,,235.14583069994114,,235.119601399987,235.14583069994114,236.14548939990345,236.14548939990345,236.14548939990345,236.14548939990345,236.1792377999518,237.14546589995734,237.14546589995734,237.84955019992776,z,1,0.6974779999582097,None,589830,001,2024-10-15_11h18.00.426,Session6_MotorSequenceLearning,2024.1.5,None,2024-10-15 11h18.06.440869 +0530,
-50,x,23,0,92,0,,,,,237.8786896999227,,237.85319880000316,237.8786896999227,238.87830629991367,238.87830629991367,238.87830629991367,238.87830629991367,238.91240419994574,239.87860279995948,239.87860279995948,240.5158637999557,x,1,0.6307884999550879,None,589830,001,2024-10-15_11h18.00.426,Session6_MotorSequenceLearning,2024.1.5,None,2024-10-15 11h18.06.440869 +0530,
150,v,23,1,93,1,,,,,240.54516719991807,,240.5198217999423,240.54516719991807,241.5450419000117,241.5450419000117,241.5450419000117,241.5450419000117,241.57875579991378,242.54382789996453,242.54382789996453,243.1989296999527,v,1,0.6523786000907421,None,589830,001,2024-10-15_11h18.00.426,Session6_MotorSequenceLearning,2024.1.5,None,2024-10-15 11h18.06.440869 +0530,
50,c,23,2,94,2,,,,,243.22689499997068,,243.201708199922,243.22689499997068,244.21216220001224,244.21216220001224,244.21216220001224,244.21216220001224,244.2291957999114,245.22754210000858,245.22754210000858,245.6968236999819,c,1,0.46548689994961023,None,589830,001,2024-10-15_11h18.00.426,Session6_MotorSequenceLearning,2024.1.5,None,2024-10-15 11h18.06.440869 +0530,
-150,z,23,3,95,3,,,,,245.7130887999665,,245.7000732999295,245.7130887999665,246.7112339999294,246.7112339999294,246.7112339999294,246.7112339999294,246.74466229998507,247.71194969990756,247.71194969990756,248.4799701999873,z,1,0.7344420000445098,None,589830,001,2024-10-15_11h18.00.426,Session6_MotorSequenceLearning,2024.1.5,None,2024-10-15 11h18.06.440869 +0530,
-50,x,24,0,96,0,,,,,248.49643379996996,,248.48379769991152,248.49643379996996,249.51041909994092,249.51041909994092,249.51041909994092,249.51041909994092,249.51041909994092,250.5101332999766,250.5101332999766,251.38030509999953,x,1,0.8447404999751598,None,589830,001,2024-10-15_11h18.00.426,Session6_MotorSequenceLearning,2024.1.5,None,2024-10-15 11h18.06.440869 +0530,
150,v,24,1,97,1,,,,,251.40994089993183,,251.38349999999627,251.40994089993183,252.4101961000124,252.4101961000124,252.4101961000124,252.4101961000124,252.42873319995124,253.40977909998037,253.40977909998037,254.1120682999026,v,1,0.6844597000163049,None,589830,001,2024-10-15_11h18.00.426,Session6_MotorSequenceLearning,2024.1.5,None,2024-10-15 11h18.06.440869 +0530,
50,c,24,2,98,2,,,,,254.12894049996976,,254.11650050000753,254.12894049996976,255.14285099995323,255.14285099995323,255.14285099995323,255.14285099995323,255.14285099995323,256.1431834999239,256.1431834999239,257.0784874999663,c,1,0.9077812000177801,None,589830,001,2024-10-15_11h18.00.426,Session6_MotorSequenceLearning,2024.1.5,None,2024-10-15 11h18.06.440869 +0530,
-150,z,24,3,99,3,,,,,257.1091139999917,,257.0833587999223,257.1091139999917,258.10915909998585,258.10915909998585,258.10915909998585,258.10915909998585,258.1282745999051,259.1131624999689,259.1131624999689,259.86161439993884,z,1,0.7207007000688463,None,589830,001,2024-10-15_11h18.00.426,Session6_MotorSequenceLearning,2024.1.5,None,2024-10-15 11h18.06.440869 +0530,
-50,x,25,0,100,0,,,,,259.8784518999746,,259.8648679999169,259.8784518999746,260.87720939994324,260.87720939994324,260.87720939994324,260.87720939994324,260.9097507999977,261.90944819990546,261.90944819990546,262.6126703999471,x,1,0.6947022000094876,None,589830,001,2024-10-15_11h18.00.426,Session6_MotorSequenceLearning,2024.1.5,None,2024-10-15 11h18.06.440869 +0530,
150,v,25,1,101,1,,,,,262.6423141999403,,262.6162277999101,262.6423141999403,263.64228169992566,263.64228169992566,263.64228169992566,263.64228169992566,263.67544059990905,264.64253740001004,264.64253740001004,265.22843159991316,v,1,0.5587102000135928,None,589830,001,2024-10-15_11h18.00.426,Session6_MotorSequenceLearning,2024.1.5,None,2024-10-15 11h18.06.440869 +0530,
50,c,25,2,102,2,,,,,265.2585231999401,,265.23201919998974,265.2585231999401,266.2587803999195,266.2587803999195,266.2587803999195,266.2587803999195,266.2924519999651,267.25867339991964,267.25867339991964,267.79514349997044,c,1,0.5054069999605417,None,589830,001,2024-10-15_11h18.00.426,Session6_MotorSequenceLearning,2024.1.5,None,2024-10-15 11h18.06.440869 +0530,
-150,z,25,3,103,3,,,,,267.8254034999991,,267.79966729995795,267.8254034999991,268.8249003000092,268.8249003000092,268.8249003000092,268.8249003000092,268.8582774999086,269.8246148999315,269.8246148999315,270.36094199994113,z,1,0.5303257999476045,None,589830,001,2024-10-15_11h18.00.426,Session6_MotorSequenceLearning,2024.1.5,None,2024-10-15 11h18.06.440869 +0530,
-50,x,26,0,104,0,,,,,270.3915547999786,,270.3648047999013,270.3915547999786,271.39066599996295,271.39066599996295,271.39066599996295,271.39066599996295,271.42474179994315,272.39083519997075,272.39083519997075,273.4278662999859,x,1,1.002039200044237,None,589830,001,2024-10-15_11h18.00.426,Session6_MotorSequenceLearning,2024.1.5,None,2024-10-15 11h18.06.440869 +0530,
150,v,26,1,105,1,,,,,273.457381999935,,273.4318718999857,273.457381999935,274.45717079995666,274.45717079995666,274.45717079995666,274.45717079995666,274.49091469997074,275.4401960999239,275.4401960999239,275.8610952999443,v,1,0.3987489000428468,None,589830,001,2024-10-15_11h18.00.426,Session6_MotorSequenceLearning,2024.1.5,None,2024-10-15 11h18.06.440869 +0530,
50,c,26,2,106,2,,,,,275.8910684000002,,275.86474290001206,275.8910684000002,276.8909595999867,276.8909595999867,276.8909595999867,276.8909595999867,276.92386699991766,277.89080940000713,277.89080940000713,278.59329789993353,c,1,0.6759401999879628,None,589830,001,2024-10-15_11h18.00.426,Session6_MotorSequenceLearning,2024.1.5,None,2024-10-15 11h18.06.440869 +0530,
-150,z,26,3,107,3,,,,,278.62368809990585,,278.598004499916,278.62368809990585,279.62361229991075,279.62361229991075,279.62361229991075,279.62361229991075,279.65721159998793,280.62339699990116,280.62339699990116,281.29292619996704,z,1,0.6454807999543846,None,589830,001,2024-10-15_11h18.00.426,Session6_MotorSequenceLearning,2024.1.5,None,2024-10-15 11h18.06.440869 +0530,
-50,x,27,0,108,0,,,,,281.32336449995637,,281.29736259998754,281.32336449995637,282.3230474999873,282.3230474999873,282.3230474999873,282.3230474999873,282.35626889998093,283.3232598999748,283.3232598999748,283.89270189998206,x,1,0.5534481999929994,None,589830,001,2024-10-15_11h18.00.426,Session6_MotorSequenceLearning,2024.1.5,None,2024-10-15 11h18.06.440869 +0530,
150,v,27,1,109,1,,,,,283.9227367999265,,283.8964508000063,283.9227367999265,284.9245946999872,284.9245946999872,284.9245946999872,284.9245946999872,284.9564151999075,285.9396828999743,285.9396828999743,286.6095908000134,v,1,0.6384779999498278,None,589830,001,2024-10-15_11h18.00.426,Session6_MotorSequenceLearning,2024.1.5,None,2024-10-15 11h18.06.440869 +0530,
50,c,27,2,110,2,,,,,286.63899589993525,,286.6161282999674,286.63899589993525,287.6389467999106,287.6389467999106,287.6389467999106,287.6389467999106,287.67297760001384,288.6395584999118,288.6395584999118,289.3419683999382,c,1,0.6944300999166444,None,589830,001,2024-10-15_11h18.00.426,Session6_MotorSequenceLearning,2024.1.5,None,2024-10-15 11h18.06.440869 +0530,
-150,z,27,3,111,3,,,,,289.3719053999521,,289.3464795999462,289.3719053999521,290.3717402999755,290.3717402999755,290.3717402999755,290.3717402999755,290.40519169997424,291.3719189999392,291.3719189999392,292.2078583999537,z,1,0.8203356999438256,None,589830,001,2024-10-15_11h18.00.426,Session6_MotorSequenceLearning,2024.1.5,None,2024-10-15 11h18.06.440869 +0530,
-50,x,28,0,112,0,,,,,292.23843949998263,,292.2114809999475,292.23843949998263,293.2379942999687,293.2379942999687,293.2379942999687,293.2379942999687,293.272293399903,294.23836209997535,294.23836209997535,295.641009499901,x,1,1.3795392999891192,None,589830,001,2024-10-15_11h18.00.426,Session6_MotorSequenceLearning,2024.1.5,None,2024-10-15 11h18.06.440869 +0530,
150,v,28,1,113,1,,,,,295.6572846999625,,295.6446319000097,295.6572846999625,296.6723353000125,296.6723353000125,296.6723353000125,296.6723353000125,296.6723353000125,297.65549569996074,297.65549569996074,298.4082372999983,v,1,0.7275878000073135,None,589830,001,2024-10-15_11h18.00.426,Session6_MotorSequenceLearning,2024.1.5,None,2024-10-15 11h18.06.440869 +0530,
50,c,28,2,114,2,,,,,298.4226386999944,,298.4121566999238,298.4226386999944,299.4217240998987,299.4217240998987,299.4217240998987,299.4217240998987,299.4217240998987,300.4379819999449,300.4379819999449,301.15642239991575,c,1,0.7134025000268593,None,589830,001,2024-10-15_11h18.00.426,Session6_MotorSequenceLearning,2024.1.5,None,2024-10-15 11h18.06.440869 +0530,
-150,z,28,3,115,3,,,,,301.17163319990505,,301.15853149991017,301.17163319990505,302.17123269999865,302.17123269999865,302.17123269999865,302.17123269999865,302.2045740999747,303.1869260999374,303.1869260999374,303.9564565999899,z,1,0.7475678999908268,None,589830,001,2024-10-15_11h18.00.426,Session6_MotorSequenceLearning,2024.1.5,None,2024-10-15 11h18.06.440869 +0530,
-50,x,29,0,116,0,,,,,303.9730126999784,,303.9597397999605,303.9730126999784,304.9868812999921,304.9868812999921,304.9868812999921,304.9868812999921,304.9868812999921,305.98784700001124,305.98784700001124,306.98950669995975,x,1,0.9719702999573201,None,589830,001,2024-10-15_11h18.00.426,Session6_MotorSequenceLearning,2024.1.5,None,2024-10-15 11h18.06.440869 +0530,
150,v,29,1,117,1,,,,,307.0199340999825,,306.9935315999901,307.0199340999825,308.0198739999905,308.0198739999905,308.0198739999905,308.0198739999905,308.05356969998684,309.01967339997645,309.01967339997645,309.69399229995906,v,1,0.6362833000021055,None,589830,001,2024-10-15_11h18.00.426,Session6_MotorSequenceLearning,2024.1.5,None,2024-10-15 11h18.06.440869 +0530,
50,c,29,2,118,2,,,,,309.7204207999166,,309.6980846999213,309.7204207999166,310.71943910000846,310.71943910000846,310.71943910000846,310.71943910000846,310.7524323000107,311.7193499999121,311.7193499999121,312.4564060999546,c,1,0.7058217999292538,None,589830,001,2024-10-15_11h18.00.426,Session6_MotorSequenceLearning,2024.1.5,None,2024-10-15 11h18.06.440869 +0530,
-150,z,29,3,119,3,,,,,312.4863226999296,,312.4612766999053,312.4863226999296,313.4855203999905,313.4855203999905,313.4855203999905,313.4855203999905,313.5187772999052,314.4856387999607,314.4856387999607,315.3881913999794,z,1,0.8691106999758631,None,589830,001,2024-10-15_11h18.00.426,Session6_MotorSequenceLearning,2024.1.5,None,2024-10-15 11h18.06.440869 +0530,
-50,x,30,0,120,0,,,,,315.4190579999704,,315.3918021999998,315.4190579999704,316.4190726999659,316.4190726999659,316.4190726999659,316.4190726999659,316.4520799999591,317.4355972999474,317.4355972999474,318.4055532999337,x,1,0.9504586000693962,None,589830,001,2024-10-15_11h18.00.426,Session6_MotorSequenceLearning,2024.1.5,None,2024-10-15 11h18.06.440869 +0530,
150,v,30,1,121,1,,,,,318.4350317999488,,318.4095055999933,318.4350317999488,319.45169459993485,319.45169459993485,319.45169459993485,319.45169459993485,319.48567989992443,320.45177559996955,320.45177559996955,321.2213015999878,v,1,0.7627127999439836,None,589830,001,2024-10-15_11h18.00.426,Session6_MotorSequenceLearning,2024.1.5,None,2024-10-15 11h18.06.440869 +0530,
50,c,30,2,122,2,,,,,321.25165489991195,,321.2257534000091,321.25165489991195,322.25178559997585,322.25178559997585,322.25178559997585,322.25178559997585,322.28457969997544,323.25089479994494,323.25089479994494,324.12176189990714,c,1,0.8670367000158876,None,589830,001,2024-10-15_11h18.00.426,Session6_MotorSequenceLearning,2024.1.5,None,2024-10-15 11h18.06.440869 +0530,
-150,z,30,3,123,3,,,,,324.1510865999153,,324.12542419997044,324.1510865999153,325.1509439999936,325.1509439999936,325.1509439999936,325.1509439999936,325.18505149998236,326.1511703999713,326.1511703999713,326.8871582999127,z,1,0.7180705000646412,None,589830,001,2024-10-15_11h18.00.426,Session6_MotorSequenceLearning,2024.1.5,None,2024-10-15 11h18.06.440869 +0530,
-50,x,31,0,124,0,,,,,326.91717949998565,,326.8907398999436,326.91717949998565,327.9173396999249,327.9173396999249,327.9173396999249,327.9173396999249,327.9508535999339,328.91736939991824,328.91736939991824,329.82012399996165,x,1,0.8907121999654919,None,589830,001,2024-10-15_11h18.00.426,Session6_MotorSequenceLearning,2024.1.5,None,2024-10-15 11h18.06.440869 +0530,
150,v,31,1,125,1,,,,,329.85017499991227,,329.8240859999787,329.85017499991227,330.85005659994204,330.85005659994204,330.85005659994204,330.85005659994204,330.8837960999226,331.8677612999454,331.8677612999454,333.1515982999699,v,1,1.2761849999660626,None,589830,001,2024-10-15_11h18.00.426,Session6_MotorSequenceLearning,2024.1.5,None,2024-10-15 11h18.06.440869 +0530,
50,c,31,2,126,2,,,,,333.1669433999341,,333.1529105999507,333.1669433999341,334.1676835999824,334.1676835999824,334.1676835999824,334.1676835999824,334.1676835999824,335.1826051999815,335.1826051999815,336.0014751999406,c,1,0.7841877999017015,None,589830,001,2024-10-15_11h18.00.426,Session6_MotorSequenceLearning,2024.1.5,None,2024-10-15 11h18.06.440869 +0530,
-150,z,31,3,127,3,,,,,336.01889569999184,,336.0048802999081,336.01889569999184,337.0328853999963,337.0328853999963,337.0328853999963,337.0328853999963,337.0328853999963,338.0485604999121,338.0485604999121,338.5871531999437,z,1,0.5347909000702202,None,589830,001,2024-10-15_11h18.00.426,Session6_MotorSequenceLearning,2024.1.5,None,2024-10-15 11h18.06.440869 +0530,
-50,x,32,0,128,0,,,,,338.6169506999431,,338.59086220001336,338.6169506999431,339.6156710999785,339.6156710999785,339.6156710999785,339.6156710999785,339.64883449999616,340.6154580999864,340.6154580999864,341.3192211999558,x,1,0.6809053999604657,None,589830,001,2024-10-15_11h18.00.426,Session6_MotorSequenceLearning,2024.1.5,None,2024-10-15 11h18.06.440869 +0530,
150,v,32,1,129,1,,,,,341.3484126999974,,341.3232834999217,341.3484126999974,342.348968999926,342.348968999926,342.348968999926,342.348968999926,342.3823837999953,343.34825089992955,343.34825089992955,343.8194219999714,v,1,0.46436400001402944,None,589830,001,2024-10-15_11h18.00.426,Session6_MotorSequenceLearning,2024.1.5,None,2024-10-15 11h18.06.440869 +0530,
50,c,32,2,130,2,,,,,343.8488854999887,,343.8240286000073,343.8488854999887,344.8481829999946,344.8481829999946,344.8481829999946,344.8481829999946,344.88192650000565,345.84838649991434,345.84838649991434,346.1529586999677,c,1,0.2985172000480816,None,589830,001,2024-10-15_11h18.00.426,Session6_MotorSequenceLearning,2024.1.5,None,2024-10-15 11h18.06.440869 +0530,
-150,z,32,3,131,3,,,,,346.18145109992474,,346.157338699908,346.18145109992474,347.18132659990806,347.18132659990806,347.18132659990806,347.18132659990806,347.2149544999702,348.1817227998981,348.1817227998981,348.61825119995046,z,1,0.4068709999555722,None,589830,001,2024-10-15_11h18.00.426,Session6_MotorSequenceLearning,2024.1.5,None,2024-10-15 11h18.06.440869 +0530,
-50,x,33,0,132,0,,,,,348.6479859999381,,348.62178409995977,348.6479859999381,349.64842879993375,349.64842879993375,349.64842879993375,349.64842879993375,349.6807880999986,350.64806839998346,350.64806839998346,350.95071609993465,x,1,0.2918260999722406,None,589830,001,2024-10-15_11h18.00.426,Session6_MotorSequenceLearning,2024.1.5,None,2024-10-15 11h18.06.440869 +0530,
150,v,33,1,133,1,,,,,350.9814868000103,,350.95493589993566,350.9814868000103,351.9804800999118,351.9804800999118,351.9804800999118,351.9804800999118,352.01404429995455,352.9805863999063,352.9805863999063,353.83322879998013,v,1,0.8356520000379533,None,589830,001,2024-10-15_11h18.00.426,Session6_MotorSequenceLearning,2024.1.5,None,2024-10-15 11h18.06.440869 +0530,
50,c,33,2,134,2,,,,,353.8635345000075,,353.8369567999616,353.8635345000075,354.8641753999982,354.8641753999982,354.8641753999982,354.8641753999982,354.8975148999598,355.8637155999895,355.8637155999895,356.4669298999943,c,1,0.5812375000678003,None,589830,001,2024-10-15_11h18.00.426,Session6_MotorSequenceLearning,2024.1.5,None,2024-10-15 11h18.06.440869 +0530,
-150,z,33,3,135,3,,,,,356.49687419994734,,356.4707767999498,356.49687419994734,357.4969922999153,357.4969922999153,357.4969922999153,357.4969922999153,357.53056169999763,358.49673839996103,358.49673839996103,358.96599910000805,z,1,0.4510932000121102,None,589830,001,2024-10-15_11h18.00.426,Session6_MotorSequenceLearning,2024.1.5,None,2024-10-15 11h18.06.440869 +0530,
-50,x,34,0,136,0,,,,,358.99615619995166,,358.97026289999485,358.99615619995166,359.9963348999154,359.9963348999154,359.9963348999154,359.9963348999154,360.0297700999072,360.99615519994404,360.99615519994404,361.4995962999528,x,1,0.4943074999609962,None,589830,001,2024-10-15_11h18.00.426,Session6_MotorSequenceLearning,2024.1.5,None,2024-10-15 11h18.06.440869 +0530,
150,v,34,1,137,1,,,,,361.5292062999215,,361.5035750999814,361.5292062999215,362.52940309990663,362.52940309990663,362.52940309990663,362.52940309990663,362.5635004999349,363.54576329991687,363.54576329991687,364.3655235999031,v,1,0.8009398999856785,None,589830,001,2024-10-15_11h18.00.426,Session6_MotorSequenceLearning,2024.1.5,None,2024-10-15 11h18.06.440869 +0530,
50,c,34,2,138,2,,,,,364.38140750001185,,364.36902509990614,364.38140750001185,365.3963704999769,365.3963704999769,365.3963704999769,365.3963704999769,365.3963704999769,366.39625170000363,366.39625170000363,366.89855219994206,c,1,0.4691827999195084,None,589830,001,2024-10-15_11h18.00.426,Session6_MotorSequenceLearning,2024.1.5,None,2024-10-15 11h18.06.440869 +0530,
-150,z,34,3,139,3,,,,,366.92939730000217,,366.9021064999979,366.92939730000217,367.92881599999964,367.92881599999964,367.92881599999964,367.92881599999964,367.9626603999641,368.9291140999412,368.9291140999412,369.7649302999489,z,1,0.8030918999575078,None,589830,001,2024-10-15_11h18.00.426,Session6_MotorSequenceLearning,2024.1.5,None,2024-10-15 11h18.06.440869 +0530,
-50,x,35,0,140,0,,,,,369.79564199992456,,369.76888919994235,369.79564199992456,370.7954589999281,370.7954589999281,370.7954589999281,370.7954589999281,370.82821149996016,371.795298299985,371.795298299985,372.6983120999066,x,1,0.8944236999377608,None,589830,001,2024-10-15_11h18.00.426,Session6_MotorSequenceLearning,2024.1.5,None,2024-10-15 11h18.06.440869 +0530,
150,v,35,1,141,1,,,,,372.7282565999776,,372.7023414999712,372.7282565999776,373.72865489998367,373.72865489998367,373.72865489998367,373.72865489998367,373.7618690999225,374.74479559995234,374.74479559995234,375.4474552999018,v,1,0.6773135999683291,None,589830,001,2024-10-15_11h18.00.426,Session6_MotorSequenceLearning,2024.1.5,None,2024-10-15 11h18.06.440869 +0530,
50,c,35,2,142,2,,,,,375.47753539995756,,375.45125269994605,375.47753539995756,376.4781743999338,376.4781743999338,376.4781743999338,376.4781743999338,376.51119549991563,377.4776301999809,377.4776301999809,378.0138533998979,c,1,0.5096965000266209,None,589830,001,2024-10-15_11h18.00.426,Session6_MotorSequenceLearning,2024.1.5,None,2024-10-15 11h18.06.440869 +0530,
-150,z,35,3,143,3,,,,,378.0441895999247,,378.0185981999384,378.0441895999247,379.04402649996337,379.04402649996337,379.04402649996337,379.04402649996337,379.0774997000117,380.06128589995205,380.06128589995205,380.83088679995853,z,1,0.746343299979344,None,589830,001,2024-10-15_11h18.00.426,Session6_MotorSequenceLearning,2024.1.5,None,2024-10-15 11h18.06.440869 +0530,
-50,x,36,0,144,0,,,,,380.86095329991076,,380.8406004999997,380.86095329991076,381.86040659993887,381.86040659993887,381.86040659993887,381.86040659993887,381.8933614999987,382.86062109994236,382.86062109994236,383.5969138999935,x,1,0.723478400032036,None,589830,001,2024-10-15_11h18.00.426,Session6_MotorSequenceLearning,2024.1.5,None,2024-10-15 11h18.06.440869 +0530,
150,v,36,1,145,1,,,,,383.62689299997874,,383.6016170999501,383.62689299997874,384.6262193999719,384.6262193999719,384.6262193999719,384.6262193999719,384.6597189999884,385.6431703999406,385.6431703999406,386.3131272000028,v,1,0.6400414999807253,None,589830,001,2024-10-15_11h18.00.426,Session6_MotorSequenceLearning,2024.1.5,None,2024-10-15 11h18.06.440869 +0530,
50,c,36,2,146,2,,,,,386.3437845999142,,386.31660269992426,386.3437845999142,387.34293749998324,387.34293749998324,387.34293749998324,387.34293749998324,387.37633299990557,388.3430901999818,388.3430901999818,388.8460927999113,c,1,0.4788479999406263,None,589830,001,2024-10-15_11h18.00.426,Session6_MotorSequenceLearning,2024.1.5,None,2024-10-15 11h18.06.440869 +0530,
-150,z,36,3,147,3,,,,,388.87619209999684,,388.85004519997165,388.87619209999684,389.8595035999315,389.8595035999315,389.8595035999315,389.8595035999315,389.8759297999786,390.87568079994526,390.87568079994526,391.6125060999766,z,1,0.7323003000346944,None,589830,001,2024-10-15_11h18.00.426,Session6_MotorSequenceLearning,2024.1.5,None,2024-10-15 11h18.06.440869 +0530,
-50,x,37,0,148,0,,,,,391.6420430999715,,391.6171570000006,391.6420430999715,392.6423941999674,392.6423941999674,392.6423941999674,392.6423941999674,392.67560620000586,393.64181529998314,393.64181529998314,394.47943469998427,x,1,0.8094661000650376,None,589830,001,2024-10-15_11h18.00.426,Session6_MotorSequenceLearning,2024.1.5,None,2024-10-15 11h18.06.440869 +0530,
150,v,37,1,149,1,,,,,394.5084018999478,,394.4840905999299,394.5084018999478,395.50818329991307,395.50818329991307,395.50818329991307,395.50818329991307,395.54253009997774,396.5088297999464,396.5088297999464,397.1113481000066,v,1,0.5900062000146136,None,589830,001,2024-10-15_11h18.00.426,Session6_MotorSequenceLearning,2024.1.5,None,2024-10-15 11h18.06.440869 +0530,
50,c,37,2,150,2,,,,,397.1417993999785,,397.11535559990443,397.1417993999785,398.141406300012,398.141406300012,398.141406300012,398.141406300012,398.1753299999982,399.14148539991584,399.14148539991584,399.64530569990166,c,1,0.4984379999805242,None,589830,001,2024-10-15_11h18.00.426,Session6_MotorSequenceLearning,2024.1.5,None,2024-10-15 11h18.06.440869 +0530,
-150,z,37,3,151,3,,,,,399.6749982999172,,399.64891549991444,399.6749982999172,400.693017099984,400.693017099984,400.693017099984,400.693017099984,400.7482139999047,401.6742481999099,401.6742481999099,402.4116625000024,z,1,0.7300272999564186,None,589830,001,2024-10-15_11h18.00.426,Session6_MotorSequenceLearning,2024.1.5,None,2024-10-15 11h18.06.440869 +0530,
-50,x,38,0,152,0,,,,,402.44127309997566,,402.4177502999082,402.44127309997566,403.44126049999613,403.44126049999613,403.44126049999613,403.44126049999613,403.4746343999868,404.4408437999664,404.4408437999664,405.57788269990124,x,1,1.1119907000102103,None,589830,001,2024-10-15_11h18.00.426,Session6_MotorSequenceLearning,2024.1.5,None,2024-10-15 11h18.06.440869 +0530,
150,v,38,1,153,1,,,,,405.6072254999308,,405.5833211999852,405.6072254999308,406.6071147999028,406.6071147999028,406.6071147999028,406.6071147999028,406.6408168999478,407.607321199961,407.607321199961,408.3105097999796,v,1,0.6998758000554517,None,589830,001,2024-10-15_11h18.00.426,Session6_MotorSequenceLearning,2024.1.5,None,2024-10-15 11h18.06.440869 +0530,
50,c,38,2,154,2,,,,,408.3402982999105,,408.3143752999604,408.3402982999105,409.33998199994676,409.33998199994676,409.33998199994676,409.33998199994676,409.3738049999811,410.3406030999031,410.3406030999031,410.90987520001363,c,1,0.5552942999638617,None,589830,001,2024-10-15_11h18.00.426,Session6_MotorSequenceLearning,2024.1.5,None,2024-10-15 11h18.06.440869 +0530,
-150,z,38,3,155,3,,,,,410.93951980001293,,410.9136206000112,410.93951980001293,411.93949309992604,411.93949309992604,411.93949309992604,411.93949309992604,411.9736898000119,412.9398727999069,412.9398727999069,413.60915599996224,z,1,0.6462532000150532,None,589830,001,2024-10-15_11h18.00.426,Session6_MotorSequenceLearning,2024.1.5,None,2024-10-15 11h18.06.440869 +0530,
-50,x,39,0,156,0,,,,,413.6416787999915,,413.6135440999642,413.6416787999915,414.6397830999922,414.6397830999922,414.6397830999922,414.6397830999922,414.67263659997843,415.6390140999574,415.6390140999574,416.9754255999578,x,1,1.317097100079991,None,589830,001,2024-10-15_11h18.00.426,Session6_MotorSequenceLearning,2024.1.5,None,2024-10-15 11h18.06.440869 +0530,
150,v,39,1,157,1,,,,,417.00567139999475,,416.9789059999166,417.00567139999475,418.00606209994294,418.00606209994294,418.00606209994294,418.00606209994294,418.03899269993417,419.00631919992156,419.00631919992156,419.54244489991106,v,1,0.5220434999791905,None,589830,001,2024-10-15_11h18.00.426,Session6_MotorSequenceLearning,2024.1.5,None,2024-10-15 11h18.06.440869 +0530,
50,c,39,2,158,2,,,,,419.57223879999947,,419.54723599995486,419.57223879999947,420.5718226999743,420.5718226999743,420.5718226999743,420.5718226999743,420.60540499992203,421.58988529990893,421.58988529990893,422.0903285999084,c,1,0.45989199995528907,None,589830,001,2024-10-15_11h18.00.426,Session6_MotorSequenceLearning,2024.1.5,None,2024-10-15 11h18.06.440869 +0530,
-150,z,39,3,159,3,,,,,422.1071480999235,,422.09502050001174,422.1071480999235,423.1208149999147,423.1208149999147,423.1208149999147,423.1208149999147,423.1208149999147,424.12124179990496,424.12124179990496,424.77246969996486,z,1,0.6489926000358537,None,589830,001,2024-10-15_11h18.00.426,Session6_MotorSequenceLearning,2024.1.5,None,2024-10-15 11h18.06.440869 +0530,
-50,x,40,0,160,0,,,,,424.78861219994724,,424.77441169996746,424.78861219994724,425.7877848999342,425.7877848999342,425.7877848999342,425.7877848999342,425.82133800000884,426.80431969999336,426.80431969999336,428.0749568999745,x,1,1.263992300024256,None,589830,001,2024-10-15_11h18.00.426,Session6_MotorSequenceLearning,2024.1.5,None,2024-10-15 11h18.06.440869 +0530,
150,v,40,1,161,1,,,,,428.10461659997236,,428.0789914999623,428.10461659997236,429.10443599999417,429.10443599999417,429.10443599999417,429.10443599999417,429.1379113999428,430.1038588999072,430.1038588999072,430.87377009994816,v,1,0.7525467000668868,None,589830,001,2024-10-15_11h18.00.426,Session6_MotorSequenceLearning,2024.1.5,None,2024-10-15 11h18.06.440869 +0530,
50,c,40,2,162,2,,,,,430.9041234999895,,430.8773547000019,430.9041234999895,431.9044927000068,431.9044927000068,431.9044927000068,431.9044927000068,431.93746599997394,432.904285699944,432.904285699944,433.69063560001086,c,1,0.781858199974522,None,589830,001,2024-10-15_11h18.00.426,Session6_MotorSequenceLearning,2024.1.5,None,2024-10-15 11h18.06.440869 +0530,
-150,z,40,3,163,3,,,,,433.7199641999323,,433.6953866999829,433.7199641999323,434.7200492999982,434.7200492999982,434.7200492999982,434.7200492999982,434.75332909997087,435.7200772999786,435.7200772999786,436.3229330999311,z,1,0.5868446999229491,None,589830,001,2024-10-15_11h18.00.426,Session6_MotorSequenceLearning,2024.1.5,None,2024-10-15 11h18.06.440869 +0530,
-50,x,41,0,164,0,,,,,436.3531379000051,,436.3269954000134,436.3531379000051,437.3530500999186,437.3530500999186,437.3530500999186,437.3530500999186,437.3878034999361,438.3528840999352,438.3528840999352,439.2559925999958,x,1,0.8953356000129133,None,589830,001,2024-10-15_11h18.00.426,Session6_MotorSequenceLearning,2024.1.5,None,2024-10-15 11h18.06.440869 +0530,
150,v,41,1,165,1,,,,,439.2861204999499,,439.2607274999609,439.2861204999499,440.2860723999329,440.2860723999329,440.2860723999329,440.2860723999329,440.31947509991005,441.28613309992943,441.28613309992943,441.89342009997927,v,1,0.5712908999994397,None,589830,001,2024-10-15_11h18.00.426,Session6_MotorSequenceLearning,2024.1.5,None,2024-10-15 11h18.06.440869 +0530,
50,c,41,2,166,2,,,,,441.91898099996615,,441.8972131999908,441.91898099996615,442.93517419998534,442.93517419998534,442.93517419998534,442.93517419998534,442.9694511999842,443.93557500001043,443.93557500001043,445.2052007999737,c,1,1.2589467000216246,None,589830,001,2024-10-15_11h18.00.426,Session6_MotorSequenceLearning,2024.1.5,None,2024-10-15 11h18.06.440869 +0530,
-150,z,41,3,167,3,,,,,445.2355441999389,,445.20907009998336,445.2355441999389,446.23512719990686,446.23512719990686,446.23512719990686,446.23512719990686,446.26864629995544,447.2360996999778,447.2360996999778,447.8730644999305,z,1,0.62890020001214,None,589830,001,2024-10-15_11h18.00.426,Session6_MotorSequenceLearning,2024.1.5,None,2024-10-15 11h18.06.440869 +0530,
-50,x,42,0,168,0,,,,,447.90236399997957,,447.8769069999689,447.90236399997957,448.9022904000012,448.9022904000012,448.9022904000012,448.9022904000012,448.9348885999061,449.9018549999455,449.9018549999455,450.5221753999358,x,1,0.5863781999796629,None,589830,001,2024-10-15_11h18.00.426,Session6_MotorSequenceLearning,2024.1.5,None,2024-10-15 11h18.06.440869 +0530,
150,v,42,1,169,1,,,,,450.5516098999651,,450.5261248999741,450.5516098999651,451.55116429994814,451.55116429994814,451.55116429994814,451.55116429994814,451.58431589999236,452.5518065999495,452.5518065999495,453.05484669993166,v,1,0.4993968999478966,None,589830,001,2024-10-15_11h18.00.426,Session6_MotorSequenceLearning,2024.1.5,None,2024-10-15 11h18.06.440869 +0530,
50,c,42,2,170,2,,,,,453.08417699998245,,453.0594560999889,453.08417699998245,454.0848076000111,454.0848076000111,454.0848076000111,454.0848076000111,454.117895299918,455.0842947999481,455.0842947999481,455.4542074999772,c,1,0.3548043000046164,None,589830,001,2024-10-15_11h18.00.426,Session6_MotorSequenceLearning,2024.1.5,None,2024-10-15 11h18.06.440869 +0530,
-150,z,42,3,171,3,,,,,455.49057389993686,,455.4586060999427,455.49057389993686,456.4841565999668,456.4841565999668,456.4841565999668,456.4841565999668,456.51764859992545,457.48364569991827,457.48364569991827,458.02080850000493,z,1,0.532215700019151,None,589830,001,2024-10-15_11h18.00.426,Session6_MotorSequenceLearning,2024.1.5,None,2024-10-15 11h18.06.440869 +0530,
-50,x,43,0,172,0,,,,,458.05049059994053,,458.02446059999056,458.05049059994053,459.0503682999406,459.0503682999406,459.0503682999406,459.0503682999406,459.08358350000344,460.0511204999639,460.0511204999639,460.3878084999742,x,1,0.33352270000614226,None,589830,001,2024-10-15_11h18.00.426,Session6_MotorSequenceLearning,2024.1.5,None,2024-10-15 11h18.06.440869 +0530,
150,v,43,1,173,1,,,,,460.41651429992635,,460.39258290000726,460.41651429992635,461.4166835999349,461.4166835999349,461.4166835999349,461.4166835999349,461.4500474999659,462.4162784999935,462.4162784999935,463.1732381999027,v,1,0.7429342999821529,None,589830,001,2024-10-15_11h18.00.426,Session6_MotorSequenceLearning,2024.1.5,None,2024-10-15 11h18.06.440869 +0530,
50,c,43,2,174,2,,,,,463.19959249999374,,463.1779195999261,463.19959249999374,464.2000039999839,464.2000039999839,464.2000039999839,464.2000039999839,464.23335829994176,465.2000898999395,465.2000898999395,465.90225069993176,c,1,0.6732956999912858,None,589830,001,2024-10-15_11h18.00.426,Session6_MotorSequenceLearning,2024.1.5,None,2024-10-15 11h18.06.440869 +0530,
-150,z,43,3,175,3,,,,,465.932861499954,,465.90922779997345,465.932861499954,466.9327385999495,466.9327385999495,466.9327385999495,466.9327385999495,466.9663037999999,467.9339531000005,467.9339531000005,468.53552039992064,z,1,0.5889525000238791,None,589830,001,2024-10-15_11h18.00.426,Session6_MotorSequenceLearning,2024.1.5,None,2024-10-15 11h18.06.440869 +0530,
-50,x,44,0,176,0,,,,,468.56742759991903,,468.5390062999213,468.56742759991903,469.56594150001183,469.56594150001183,469.56594150001183,469.56594150001183,469.5999686999712,470.5661179999588,470.5661179999588,471.2855344999116,x,1,0.7068730000173673,None,589830,001,2024-10-15_11h18.00.426,Session6_MotorSequenceLearning,2024.1.5,None,2024-10-15 11h18.06.440869 +0530,
150,v,44,1,177,1,,,,,471.3156631999882,,471.2895053999964,471.3156631999882,472.3149689999409,472.3149689999409,472.3149689999409,472.3149689999409,472.334148599999,473.31510879995767,473.31510879995767,474.3187406999059,v,1,0.9964867000235245,None,589830,001,2024-10-15_11h18.00.426,Session6_MotorSequenceLearning,2024.1.5,None,2024-10-15 11h18.06.440869 +0530,
50,c,44,2,178,2,,,,,474.3481562999077,,474.32211800001096,474.3481562999077,475.34805789997336,475.34805789997336,475.34805789997336,475.34805789997336,475.3814015999669,476.3482344999211,476.3482344999211,477.7505313999718,c,1,1.3911231000674888,None,589830,001,2024-10-15_11h18.00.426,Session6_MotorSequenceLearning,2024.1.5,None,2024-10-15 11h18.06.440869 +0530,
-150,z,44,3,179,3,,,,,477.7665053999517,,477.75402979995124,477.7665053999517,478.78088350000326,478.78088350000326,478.78088350000326,478.78088350000326,478.78088350000326,479.7809210999403,479.7809210999403,480.7831896999851,z,1,0.9726521000266075,None,589830,001,2024-10-15_11h18.00.426,Session6_MotorSequenceLearning,2024.1.5,None,2024-10-15 11h18.06.440869 +0530,
-50,x,45,0,180,0,,,,,480.8000368999783,,480.78694779996295,480.8000368999783,481.81395129999146,481.81395129999146,481.81395129999146,481.81395129999146,481.81395129999146,482.83081539999694,482.83081539999694,483.53323199995793,x,1,0.6684842999093235,None,589830,001,2024-10-15_11h18.00.426,Session6_MotorSequenceLearning,2024.1.5,None,2024-10-15 11h18.06.440869 +0530,
150,v,45,1,181,1,,,,,483.549590599956,,483.536760399933,483.549590599956,484.5634751999751,484.5634751999751,484.5634751999751,484.5634751999751,484.5634751999751,485.5803062999621,485.5803062999621,486.1164886999177,v,1,0.5201926999725401,None,589830,001,2024-10-15_11h18.00.426,Session6_MotorSequenceLearning,2024.1.5,None,2024-10-15 11h18.06.440869 +0530,
50,c,45,2,182,2,,,,,486.1466529999161,,486.1201873999089,486.1466529999161,487.1467293999158,487.1467293999158,487.1467293999158,487.1467293999158,487.1798669999698,488.1463652999373,488.1463652999373,488.51639379991684,c,1,0.36115050001535565,None,589830,001,2024-10-15_11h18.00.426,Session6_MotorSequenceLearning,2024.1.5,None,2024-10-15 11h18.06.440869 +0530,
-150,z,45,3,183,3,,,,,488.54626579990145,,488.52010339999106,488.54626579990145,489.5462615999859,489.5462615999859,489.5462615999859,489.5462615999859,489.57940269995015,490.56280019995756,490.56280019995756,491.19908930000383,z,1,0.6234649999532849,None,589830,001,2024-10-15_11h18.00.426,Session6_MotorSequenceLearning,2024.1.5,None,2024-10-15 11h18.06.440869 +0530,
-50,x,46,0,184,0,,,,,491.21535740001127,,491.20260409999173,491.21535740001127,492.2291858999524,492.2291858999524,492.2291858999524,492.2291858999524,492.2291858999524,493.22911339998245,493.22911339998245,493.83225699991453,x,1,0.5932120999787003,None,589830,001,2024-10-15_11h18.00.426,Session6_MotorSequenceLearning,2024.1.5,None,2024-10-15 11h18.06.440869 +0530,
150,v,46,1,185,1,,,,,493.862126299995,,493.8359423999209,493.862126299995,494.8623113000067,494.8623113000067,494.8623113000067,494.8623113000067,494.8959135999903,495.86203889991157,495.86203889991157,496.2320219000103,v,1,0.3626201000297442,None,589830,001,2024-10-15_11h18.00.426,Session6_MotorSequenceLearning,2024.1.5,None,2024-10-15 11h18.06.440869 +0530,
50,c,46,2,186,2,,,,,496.2622492999071,,496.2356000998989,496.2622492999071,497.2619041999569,497.2619041999569,497.2619041999569,497.2619041999569,497.295317400014,498.26175349997357,498.26175349997357,498.6317412999924,c,1,0.35643859999254346,None,589830,001,2024-10-15_11h18.00.426,Session6_MotorSequenceLearning,2024.1.5,None,2024-10-15 11h18.06.440869 +0530,
-150,z,46,3,187,3,,,,,498.6619406999089,,498.6354522999609,498.6619406999089,499.66178859991487,499.66178859991487,499.66178859991487,499.66178859991487,499.6950407999102,500.6617659999756,500.6617659999756,501.3975952999899,z,1,0.7242045999737456,None,589830,001,2024-10-15_11h18.00.426,Session6_MotorSequenceLearning,2024.1.5,None,2024-10-15 11h18.06.440869 +0530,
-50,x,47,0,188,0,,,,,501.4280639999779,,501.4012717999285,501.4280639999779,502.4281503999373,502.4281503999373,502.4281503999373,502.4281503999373,502.4613465999719,503.4444329999387,503.4444329999387,503.78107629995793,x,1,0.32650869991630316,None,589830,001,2024-10-15_11h18.00.426,Session6_MotorSequenceLearning,2024.1.5,None,2024-10-15 11h18.06.440869 +0530,
150,v,47,1,189,1,,,,,503.811100199935,,503.7848234999692,503.811100199935,504.810993699939,504.810993699939,504.810993699939,504.810993699939,504.84440959990025,505.7956359999953,505.7956359999953,506.9284737999551,v,1,1.1024953000014648,None,589830,001,2024-10-15_11h18.00.426,Session6_MotorSequenceLearning,2024.1.5,None,2024-10-15 11h18.06.440869 +0530,
50,c,47,2,190,2,,,,,506.9449996999465,,506.93083530000877,506.9449996999465,507.94430899992585,507.94430899992585,507.94430899992585,507.94430899992585,507.97739829996135,508.9603580000112,508.9603580000112,509.7966063999338,c,1,0.8129775000270456,None,589830,001,2024-10-15_11h18.00.426,Session6_MotorSequenceLearning,2024.1.5,None,2024-10-15 11h18.06.440869 +0530,
-150,z,47,3,191,3,,,,,509.81290579994675,,509.80017880001105,509.81290579994675,510.8271846999414,510.8271846999414,510.8271846999414,510.8271846999414,510.8271846999414,511.8433902999386,511.8433902999386,512.2789703999879,z,1,0.4259027000516653,None,589830,001,2024-10-15_11h18.00.426,Session6_MotorSequenceLearning,2024.1.5,None,2024-10-15 11h18.06.440869 +0530,
-50,x,48,0,192,0,,,,,512.2945231999038,,512.2810466999654,512.2945231999038,513.2941271999152,513.2941271999152,513.2941271999152,513.2941271999152,513.2941271999152,514.326518899994,514.326518899994,514.7636458999477,x,1,0.42690500000026077,None,589830,001,2024-10-15_11h18.00.426,Session6_MotorSequenceLearning,2024.1.5,None,2024-10-15 11h18.06.440869 +0530,
150,v,48,1,193,1,,,,,514.7939408000093,,514.7668820999097,514.7939408000093,515.7928619999439,515.7928619999439,515.7928619999439,515.7928619999439,515.8117601999547,516.7771959999809,516.7771959999809,517.5455531999469,v,1,0.7593275000108406,None,589830,001,2024-10-15_11h18.00.426,Session6_MotorSequenceLearning,2024.1.5,None,2024-10-15 11h18.06.440869 +0530,
50,c,48,2,194,2,,,,,517.5760299999965,,517.548994999961,517.5760299999965,518.5748324999586,518.5748324999586,518.5748324999586,518.5748324999586,518.5931254999014,519.5604640999809,519.5604640999809,520.0432472999673,c,1,0.4507523999782279,None,589830,001,2024-10-15_11h18.00.426,Session6_MotorSequenceLearning,2024.1.5,None,2024-10-15 11h18.06.440869 +0530,
-150,z,48,3,195,3,,,,,520.0601384999463,,520.0456888999324,520.0601384999463,521.0589285999304,521.0589285999304,521.0589285999304,521.0589285999304,521.077240100014,522.0586122999666,522.0586122999666,522.6289155000122,z,1,0.5669106000568718,None,589830,001,2024-10-15_11h18.00.426,Session6_MotorSequenceLearning,2024.1.5,None,2024-10-15 11h18.06.440869 +0530,
-50,x,49,0,196,0,,,,,522.6585393999703,,522.6325054999907,522.6585393999703,523.6595021999674,523.6595021999674,523.6595021999674,523.6595021999674,523.6927051999373,524.6590709999437,524.6590709999437,526.4613686999073,x,1,1.7786933000897989,None,589830,001,2024-10-15_11h18.00.426,Session6_MotorSequenceLearning,2024.1.5,None,2024-10-15 11h18.06.440869 +0530,
150,v,49,1,197,1,,,,,526.4776550999377,,526.4650791999884,526.4776550999377,527.4914397000102,527.4914397000102,527.4914397000102,527.4914397000102,527.4914397000102,528.491303699906,528.491303699906,529.4631778999465,v,1,0.9557572999037802,None,589830,001,2024-10-15_11h18.00.426,Session6_MotorSequenceLearning,2024.1.5,None,2024-10-15 11h18.06.440869 +0530,
50,c,49,2,198,2,,,,,529.4911675999174,,529.4681608999381,529.4911675999174,530.4913723999634,530.4913723999634,530.4913723999634,530.4913723999634,530.524159399909,531.5074081999483,531.5074081999483,532.6102319000056,c,1,1.0842355999629945,None,589830,001,2024-10-15_11h18.00.426,Session6_MotorSequenceLearning,2024.1.5,None,2024-10-15 11h18.06.440869 +0530,
-150,z,49,3,199,3,,,,,532.6265501999296,,532.6137485000072,532.6265501999296,533.6429914999753,533.6429914999753,533.6429914999753,533.6429914999753,533.6429914999753,534.6571752999444,534.6571752999444,536.5093528999714,z,1,1.8439213000237942,None,589830,001,2024-10-15_11h18.00.426,Session6_MotorSequenceLearning,2024.1.5,None,2024-10-15 11h18.06.440869 +0530,
-150,z,,,,,0,0,0,3,536.5400965999579,,536.525501600001,536.5400965999579,537.5234303999459,537.5234303999459,537.5234303999459,537.5234303999459,537.5571482999949,538.539941499941,538.539941499941,540.3257102000061,z,1,1.7686816999921575,None,589830,001,2024-10-15_11h18.00.426,Session6_MotorSequenceLearning,2024.1.5,None,2024-10-15 11h18.06.440869 +0530,
150,v,,,,,0,1,1,1,540.356460699928,,540.3302606999641,540.356460699928,541.3565374999307,541.3565374999307,541.3565374999307,541.3565374999307,541.3897477999562,542.3729153999593,542.3729153999593,543.2421106999973,v,1,0.8482071000616997,None,589830,001,2024-10-15_11h18.00.426,Session6_MotorSequenceLearning,2024.1.5,None,2024-10-15 11h18.06.440869 +0530,
50,c,,,,,0,2,2,2,543.2583116999594,,543.2457140999613,543.2583116999594,544.2892931000097,544.2892931000097,544.2892931000097,544.2892931000097,544.2892931000097,545.272588999942,545.272588999942,546.8093324999791,c,1,1.5316061000339687,None,589830,001,2024-10-15_11h18.00.426,Session6_MotorSequenceLearning,2024.1.5,None,2024-10-15 11h18.06.440869 +0530,
50,c,,,,,0,3,3,2,546.8388617999153,,546.8129454998998,546.8388617999153,547.839299299987,547.839299299987,547.839299299987,547.839299299987,547.8720490999985,548.8385069000069,548.8385069000069,550.3088527999353,c,1,1.4660781999118626,None,589830,001,2024-10-15_11h18.00.426,Session6_MotorSequenceLearning,2024.1.5,None,2024-10-15 11h18.06.440869 +0530,
50,c,,,,,1,0,4,2,550.3382842999417,,550.3125061999308,550.3382842999417,551.3385219000047,551.3385219000047,551.3385219000047,551.3385219000047,551.3715298000025,552.3548846999183,552.3548846999183,553.3908119999105,c,1,1.0169882000191137,None,589830,001,2024-10-15_11h18.00.426,Session6_MotorSequenceLearning,2024.1.5,None,2024-10-15 11h18.06.440869 +0530,
150,v,,,,,1,1,5,1,553.4066187000135,,553.3945017999504,553.4066187000135,554.4210462999763,554.4210462999763,554.4210462999763,554.4210462999763,554.4210462999763,555.4214742999757,555.4214742999757,556.5243455999298,v,1,1.0962760000256822,None,589830,001,2024-10-15_11h18.00.426,Session6_MotorSequenceLearning,2024.1.5,None,2024-10-15 11h18.06.440869 +0530,
-50,x,,,,,1,2,6,0,556.5541855999036,,556.5280441999203,556.5541855999036,557.5542161999037,557.5542161999037,557.5542161999037,557.5542161999037,557.5874810999958,558.5545852999203,558.5545852999203,559.8235861000139,x,1,1.2603805999970064,None,589830,001,2024-10-15_11h18.00.426,Session6_MotorSequenceLearning,2024.1.5,None,2024-10-15 11h18.06.440869 +0530,
-50,x,,,,,1,3,7,0,559.8537430999568,,559.8272124999203,559.8537430999568,560.8539943000069,560.8539943000069,560.8539943000069,560.8539943000069,560.8872083999449,561.8537147999741,561.8537147999741,563.8395755999954,x,1,1.9602632999885827,None,589830,001,2024-10-15_11h18.00.426,Session6_MotorSequenceLearning,2024.1.5,None,2024-10-15 11h18.06.440869 +0530,
-50,x,,,,,2,0,8,0,563.855401400011,,563.8431535999989,563.855401400011,564.8702204999281,564.8702204999281,564.8702204999281,564.8702204999281,564.8702204999281,565.8545551999705,565.8545551999705,567.6891791999806,x,1,1.8311015999643132,None,589830,001,2024-10-15_11h18.00.426,Session6_MotorSequenceLearning,2024.1.5,None,2024-10-15 11h18.06.440869 +0530,
-150,z,,,,,2,1,9,3,567.7058475000085,,567.692600499955,567.7058475000085,568.7193857999519,568.7193857999519,568.7193857999519,568.7193857999519,568.7193857999519,569.7192678999854,569.7192678999854,570.622375399922,z,1,0.8921864998992532,None,589830,001,2024-10-15_11h18.00.426,Session6_MotorSequenceLearning,2024.1.5,None,2024-10-15 11h18.06.440869 +0530,
50,c,,,,,2,2,10,2,570.6526033999398,,570.6259752999758,570.6526033999398,571.6526137999026,571.6526137999026,571.6526137999026,571.6526137999026,571.6856760999653,572.6687886998989,572.6687886998989,574.1394298999803,c,1,1.4644743000390008,None,589830,001,2024-10-15_11h18.00.426,Session6_MotorSequenceLearning,2024.1.5,None,2024-10-15 11h18.06.440869 +0530,
-150,z,,,,,2,3,11,3,574.1688855999382,,574.1431759999832,574.1688855999382,575.1686301999725,575.1686301999725,575.1686301999725,575.1686301999725,575.202672299929,576.1851783999009,576.1851783999009,577.3210437999805,z,1,1.1280741000082344,None,589830,001,2024-10-15_11h18.00.426,Session6_MotorSequenceLearning,2024.1.5,None,2024-10-15 11h18.06.440869 +0530,
-150,z,,,,,3,0,12,3,577.3516922999406,,577.3246920999372,577.3516922999406,578.369490699959,578.369490699959,578.369490699959,578.369490699959,578.4014850999229,579.3681030999869,579.3681030999869,579.9709910999518,z,1,0.5779957000631839,None,589830,001,2024-10-15_11h18.00.426,Session6_MotorSequenceLearning,2024.1.5,None,2024-10-15 11h18.06.440869 +0530,
-50,x,,,,,3,1,13,0,579.9869093999732,,579.9745972999372,579.9869093999732,581.0009968999075,581.0009968999075,581.0009968999075,581.0009968999075,581.0009968999075,582.0010866000084,582.0010866000084,582.8374917999608,x,1,0.8056998999090865,None,589830,001,2024-10-15_11h18.00.426,Session6_MotorSequenceLearning,2024.1.5,None,2024-10-15 11h18.06.440869 +0530,
-150,z,,,,,3,2,14,3,582.8532273999881,,582.8410498999292,582.8532273999881,583.8674774999963,583.8674774999963,583.8674774999963,583.8674774999963,583.8674774999963,584.8677836999996,584.8677836999996,585.5368602999952,z,1,0.6518703000620008,None,589830,001,2024-10-15_11h18.00.426,Session6_MotorSequenceLearning,2024.1.5,None,2024-10-15 11h18.06.440869 +0530,
-150,z,,,,,3,3,15,3,585.5671348999022,,585.5405551999575,585.5671348999022,586.5670806999551,586.5670806999551,586.5670806999551,586.5670806999551,586.6004714999581,587.5674737999216,587.5674737999216,588.0695323999971,z,1,0.4707417000317946,None,589830,001,2024-10-15_11h18.00.426,Session6_MotorSequenceLearning,2024.1.5,None,2024-10-15 11h18.06.440869 +0530,
150,v,,,,,4,0,16,1,588.08595410001,,588.0736124999821,588.08595410001,589.1004062999273,589.1004062999273,589.1004062999273,589.1004062999273,589.1004062999273,590.1166470999597,590.1166470999597,591.15268379997,v,1,1.0200288000050932,None,589830,001,2024-10-15_11h18.00.426,Session6_MotorSequenceLearning,2024.1.5,None,2024-10-15 11h18.06.440869 +0530,
150,v,,,,,4,1,17,1,591.168690499966,,591.1563821999589,591.168690499966,592.1830217000097,592.1830217000097,592.1830217000097,592.1830217000097,592.1830217000097,593.199523099931,593.199523099931,593.8190781999147,v,1,0.5942666999762878,None,589830,001,2024-10-15_11h18.00.426,Session6_MotorSequenceLearning,2024.1.5,None,2024-10-15 11h18.06.440869 +0530,
-150,z,,,,,4,2,18,3,593.835526999901,,593.8226483999752,593.835526999901,594.849229299929,594.849229299929,594.849229299929,594.849229299929,594.849229299929,595.86583289993,595.86583289993,596.4685799999861,z,1,0.5824668999994174,None,589830,001,2024-10-15_11h18.00.426,Session6_MotorSequenceLearning,2024.1.5,None,2024-10-15 11h18.06.440869 +0530,
50,c,,,,,4,3,19,2,596.4845828999532,,596.4722616999643,596.4845828999532,597.4995552999899,597.4995552999899,597.4995552999899,597.4995552999899,597.4995552999899,598.4988443999318,598.4988443999318,599.2357214000076,v,0,0.723827900015749,None,589830,001,2024-10-15_11h18.00.426,Session6_MotorSequenceLearning,2024.1.5,None,2024-10-15 11h18.06.440869 +0530,
-150,z,,,,,5,0,20,3,599.2652892000042,,599.2393479999155,599.2652892000042,600.265562399989,600.265562399989,600.265562399989,600.265562399989,600.2986172999954,601.2651017999742,601.2651017999742,603.2671403000131,z,1,1.9876243999460712,None,589830,001,2024-10-15_11h18.00.426,Session6_MotorSequenceLearning,2024.1.5,None,2024-10-15 11h18.06.440869 +0530,
-150,z,,,,,5,1,21,3,603.2823158999672,,603.2700653999345,603.2823158999672,604.2824524999596,604.2824524999596,604.2824524999596,604.2824524999596,604.2824524999596,605.2977211999241,605.2977211999241,606.0340162999928,z,1,0.7275890000164509,None,589830,001,2024-10-15_11h18.00.426,Session6_MotorSequenceLearning,2024.1.5,None,2024-10-15 11h18.06.440869 +0530,
-50,x,,,,,5,2,22,0,606.0644270000048,,606.0378101000097,606.0644270000048,607.0646685999818,607.0646685999818,607.0646685999818,607.0646685999818,607.0980223999359,608.0812143000076,608.0812143000076,609.1822168999352,x,1,1.0842020999407396,None,589830,001,2024-10-15_11h18.00.426,Session6_MotorSequenceLearning,2024.1.5,None,2024-10-15 11h18.06.440869 +0530,
150,v,,,,,5,3,23,1,609.198568199994,,609.1846972999629,609.198568199994,610.1973816999234,610.1973816999234,610.1973816999234,610.1973816999234,610.2310034999391,611.2305204999866,611.2305204999866,612.1331085999263,v,1,0.8906199999619275,None,589830,001,2024-10-15_11h18.00.426,Session6_MotorSequenceLearning,2024.1.5,None,2024-10-15 11h18.06.440869 +0530,
150,v,,,,,6,0,24,1,612.1496449999977,,612.1364716999233,612.1496449999977,613.1640637000091,613.1640637000091,613.1640637000091,613.1640637000091,613.1640637000091,614.1802133999299,614.1802133999299,614.8331829999806,v,1,0.6253545000217855,None,589830,001,2024-10-15_11h18.00.426,Session6_MotorSequenceLearning,2024.1.5,None,2024-10-15 11h18.06.440869 +0530,
-50,x,,,,,6,1,25,0,614.8488281999016,,614.8368745999178,614.8488281999016,615.8633639999898,615.8633639999898,615.8633639999898,615.8633639999898,615.8633639999898,616.8798917999957,616.8798917999957,617.9506372999167,x,1,1.067438600002788,None,589830,001,2024-10-15_11h18.00.426,Session6_MotorSequenceLearning,2024.1.5,None,2024-10-15 11h18.06.440869 +0530,
150,v,,,,,6,2,26,1,617.9796729999362,,617.9541512000142,617.9796729999362,618.9797708999831,618.9797708999831,618.9797708999831,618.9797708999831,619.012710299925,619.9963476000121,619.9963476000121,620.999095599982,v,1,0.9708633000263944,None,589830,001,2024-10-15_11h18.00.426,Session6_MotorSequenceLearning,2024.1.5,None,2024-10-15 11h18.06.440869 +0530,
-150,z,,,,,6,3,27,3,621.014878799906,,621.0025714999065,621.014878799906,622.0293755999301,622.0293755999301,622.0293755999301,622.0293755999301,622.0293755999301,623.0457325999159,623.0457325999159,623.6817027999787,z,1,0.6062515999656171,None,589830,001,2024-10-15_11h18.00.426,Session6_MotorSequenceLearning,2024.1.5,None,2024-10-15 11h18.06.440869 +0530,
150,v,,,,,7,0,28,1,623.69803520001,,623.6854034999851,623.69803520001,624.7124100999208,624.7124100999208,624.7124100999208,624.7124100999208,624.7124100999208,625.7288760999218,625.7288760999218,626.6982160999905,v,1,0.944117100094445,None,589830,001,2024-10-15_11h18.00.426,Session6_MotorSequenceLearning,2024.1.5,None,2024-10-15 11h18.06.440869 +0530,
150,v,,,,,7,1,29,1,626.7142845999915,,626.7016322999261,626.7142845999915,627.7283797999844,627.7283797999844,627.7283797999844,627.7283797999844,627.7283797999844,628.7282924999017,628.7282924999017,629.4988067999948,v,1,0.7622369000455365,None,589830,001,2024-10-15_11h18.00.426,Session6_MotorSequenceLearning,2024.1.5,None,2024-10-15 11h18.06.440869 +0530,
-50,x,,,,,7,2,30,0,629.5288167999825,,629.5038789999671,629.5288167999825,630.5280641999561,630.5280641999561,630.5280641999561,630.5280641999561,630.5470412999857,631.5448897999013,631.5448897999013,632.681029099971,x,1,1.127157700015232,None,589830,001,2024-10-15_11h18.00.426,Session6_MotorSequenceLearning,2024.1.5,None,2024-10-15 11h18.06.440869 +0530,
150,v,,,,,7,3,31,1,632.7111274999334,,632.6854913999559,632.7111274999334,633.7110788999125,633.7110788999125,633.7110788999125,633.7110788999125,633.7443604998989,634.7276183000067,634.7276183000067,635.5971281999955,v,1,0.8411246000323445,None,589830,001,2024-10-15_11h18.00.426,Session6_MotorSequenceLearning,2024.1.5,None,2024-10-15 11h18.06.440869 +0530,
-150,z,,,,,8,0,32,3,635.6127376999939,,635.6008600000059,635.6127376999939,636.6275605999399,636.6275605999399,636.6275605999399,636.6275605999399,636.6275605999399,637.6275100999046,637.6275100999046,638.3303428000072,z,1,0.698437700048089,None,589830,001,2024-10-15_11h18.00.426,Session6_MotorSequenceLearning,2024.1.5,None,2024-10-15 11h18.06.440869 +0530,
-150,z,,,,,8,1,33,3,638.3603305999422,,638.3340752999065,638.3603305999422,639.3604245999595,639.3604245999595,639.3604245999595,639.3604245999595,639.3935797999147,640.3769553999882,640.3769553999882,641.1796411999967,z,1,0.7744439999805763,None,589830,001,2024-10-15_11h18.00.426,Session6_MotorSequenceLearning,2024.1.5,None,2024-10-15 11h18.06.440869 +0530,
50,c,,,,,8,2,34,2,641.1955052999547,,641.1832705999259,641.1955052999547,642.2103593999054,642.2103593999054,642.2103593999054,642.2103593999054,642.2103593999054,643.2097274999833,643.2097274999833,644.2792756999843,c,1,1.0499708999413997,None,589830,001,2024-10-15_11h18.00.426,Session6_MotorSequenceLearning,2024.1.5,None,2024-10-15 11h18.06.440869 +0530,
150,v,,,,,8,3,35,1,644.2954480999615,,644.2828767999308,644.2954480999615,645.309591999976,645.309591999976,645.309591999976,645.309591999976,645.309591999976,646.3099496999057,646.3099496999057,647.1463695999701,v,1,0.8166318000294268,None,589830,001,2024-10-15_11h18.00.426,Session6_MotorSequenceLearning,2024.1.5,None,2024-10-15 11h18.06.440869 +0530,
150,v,,,,,9,0,36,1,647.1622815999435,,647.1497208999936,647.1622815999435,648.1765374999959,648.1765374999959,648.1765374999959,648.1765374999959,648.1765374999959,649.1760649000062,649.1760649000062,650.645990399993,v,1,1.4667459001066163,None,589830,001,2024-10-15_11h18.00.426,Session6_MotorSequenceLearning,2024.1.5,None,2024-10-15 11h18.06.440869 +0530,
150,v,,,,,9,1,37,1,650.6763961999677,,650.6496512999292,650.6763961999677,651.6757040999364,651.6757040999364,651.6757040999364,651.6757040999364,651.7086460000137,652.6597579999361,652.6597579999361,654.2599518999923,v,1,1.5956406999612227,None,589830,001,2024-10-15_11h18.00.426,Session6_MotorSequenceLearning,2024.1.5,None,2024-10-15 11h18.06.440869 +0530,
50,c,,,,,9,2,38,2,654.2760926999617,,654.2623399998993,654.2760926999617,655.2912400999339,655.2912400999339,655.2912400999339,655.2912400999339,655.2912400999339,656.2912228999194,656.2912228999194,657.6609883999918,c,1,1.3364498999435455,None,589830,001,2024-10-15_11h18.00.426,Session6_MotorSequenceLearning,2024.1.5,None,2024-10-15 11h18.06.440869 +0530,
-50,x,,,,,9,3,39,0,657.67689839995,,657.6645657999907,657.67689839995,658.6913100999082,658.6913100999082,658.6913100999082,658.6913100999082,658.6913100999082,659.6908821999095,659.6908821999095,660.727257499937,x,1,1.0202942000469193,None,589830,001,2024-10-15_11h18.00.426,Session6_MotorSequenceLearning,2024.1.5,None,2024-10-15 11h18.06.440869 +0530,
150,v,,,,,10,0,40,1,660.7574094999582,,660.7310247999849,660.7574094999582,661.7575103999116,661.7575103999116,661.7575103999116,661.7575103999116,661.7906533000059,662.7573899999261,662.7573899999261,663.8944545999402,v,1,1.1314985000062734,None,589830,001,2024-10-15_11h18.00.426,Session6_MotorSequenceLearning,2024.1.5,None,2024-10-15 11h18.06.440869 +0530,
50,c,,,,,10,1,41,2,663.9241347999778,,663.8981873999583,663.9241347999778,664.923917899956,664.923917899956,664.923917899956,664.923917899956,664.9569959999062,665.9404519000091,665.9404519000091,667.3929757999722,c,1,1.4435272999107838,None,589830,001,2024-10-15_11h18.00.426,Session6_MotorSequenceLearning,2024.1.5,None,2024-10-15 11h18.06.440869 +0530,
-50,x,,,,,10,2,42,0,667.4234274999471,,667.3963642999297,667.4234274999471,668.4234919999726,668.4234919999726,668.4234919999726,668.4234919999726,668.4565795999952,669.4400255999062,669.4400255999062,670.2759485999122,x,1,0.8035646000644192,None,589830,001,2024-10-15_11h18.00.426,Session6_MotorSequenceLearning,2024.1.5,None,2024-10-15 11h18.06.440869 +0530,
150,v,,,,,10,3,43,1,670.2920488999225,,670.2796398999635,670.2920488999225,671.3060856999364,671.3060856999364,671.3060856999364,671.3060856999364,671.3060856999364,672.3228998999111,672.3228998999111,673.3591081999475,v,1,1.0258529999991879,None,589830,001,2024-10-15_11h18.00.426,Session6_MotorSequenceLearning,2024.1.5,None,2024-10-15 11h18.06.440869 +0530,
150,v,,,,,11,0,44,1,673.3891374999657,,673.3629244999029,673.3891374999657,674.3892717999406,674.3892717999406,674.3892717999406,674.3892717999406,674.4223998999223,675.4056063999888,675.4056063999888,676.341825200012,v,1,0.9174975000787526,None,589830,001,2024-10-15_11h18.00.426,Session6_MotorSequenceLearning,2024.1.5,None,2024-10-15 11h18.06.440869 +0530,
-50,x,,,,,11,1,45,0,676.3577166999457,,676.3453797999537,676.3577166999457,677.3723163999384,677.3723163999384,677.3723163999384,677.3723163999384,677.3723163999384,678.388667399995,678.388667399995,679.9244244999718,x,1,1.5031835000263527,None,589830,001,2024-10-15_11h18.00.426,Session6_MotorSequenceLearning,2024.1.5,None,2024-10-15 11h18.06.440869 +0530,
-50,x,,,,,11,2,46,0,679.9407933999319,,679.9280012999661,679.9407933999319,680.9552572999382,680.9552572999382,680.9552572999382,680.9552572999382,680.9552572999382,681.9547861999599,681.9547861999599,682.6579088999424,x,1,0.6887821999844164,None,589830,001,2024-10-15_11h18.00.426,Session6_MotorSequenceLearning,2024.1.5,None,2024-10-15 11h18.06.440869 +0530,
150,v,,,,,11,3,47,1,682.6880744999507,,682.6628602999263,682.6880744999507,683.6878447999479,683.6878447999479,683.6878447999479,683.6878447999479,683.7213978999062,684.6879667999456,684.6879667999456,685.558213799959,v,1,0.8359744000481442,None,589830,001,2024-10-15_11h18.00.426,Session6_MotorSequenceLearning,2024.1.5,None,2024-10-15 11h18.06.440869 +0530,
50,c,,,,,12,0,48,2,685.5876526999054,,685.5633167999331,685.5876526999054,686.5876568999374,686.5876568999374,686.5876568999374,686.5876568999374,686.6210897999117,687.6041220999323,687.6041220999323,688.4568617999321,c,1,0.8283863000106066,None,589830,001,2024-10-15_11h18.00.426,Session6_MotorSequenceLearning,2024.1.5,None,2024-10-15 11h18.06.440869 +0530,
-50,x,,,,,12,1,49,0,688.4727220999775,,688.461152200005,688.4727220999775,689.4870073999045,689.4870073999045,689.4870073999045,689.4870073999045,689.4870073999045,690.4872872999404,690.4872872999404,691.0901928999228,x,1,0.5985070000169799,None,589830,001,2024-10-15_11h18.00.426,Session6_MotorSequenceLearning,2024.1.5,None,2024-10-15 11h18.06.440869 +0530,
50,c,,,,,12,2,50,2,691.1203789999709,,691.0938799999421,691.1203789999709,692.137167399982,692.137167399982,692.137167399982,692.137167399982,692.1704642999684,693.1039821999148,693.1039821999148,694.1391507999506,c,1,1.026389200007543,None,589830,001,2024-10-15_11h18.00.426,Session6_MotorSequenceLearning,2024.1.5,None,2024-10-15 11h18.06.440869 +0530,
-150,z,,,,,12,3,51,3,694.1542538999347,,694.1412162999623,694.1542538999347,695.1539971999591,695.1539971999591,695.1539971999591,695.1539971999591,695.1539971999591,696.1545239000116,696.1545239000116,696.7207047999837,z,1,0.5419303000671789,None,589830,001,2024-10-15_11h18.00.426,Session6_MotorSequenceLearning,2024.1.5,None,2024-10-15 11h18.06.440869 +0530,
-50,x,,,,,13,0,52,0,696.7372025999939,,696.7230765999993,696.7372025999939,697.7360402999911,697.7360402999911,697.7360402999911,697.7360402999911,697.7568447999656,698.752753800014,698.752753800014,699.9223752999678,x,1,1.1626206000801176,None,589830,001,2024-10-15_11h18.00.426,Session6_MotorSequenceLearning,2024.1.5,None,2024-10-15 11h18.06.440869 +0530,
50,c,,,,,13,1,53,2,699.9525358999381,,699.926078199991,699.9525358999381,700.9524234000128,700.9524234000128,700.9524234000128,700.9524234000128,700.9856187999249,701.9522403998999,701.9522403998999,702.7560756999301,c,1,0.7859760000137612,None,589830,001,2024-10-15_11h18.00.426,Session6_MotorSequenceLearning,2024.1.5,None,2024-10-15 11h18.06.440869 +0530,
-150,z,,,,,13,2,54,3,702.7858411999187,,702.7598386999452,702.7858411999187,703.7856806999771,703.7856806999771,703.7856806999771,703.7856806999771,703.818976999959,704.7842324000085,704.7842324000085,707.1378294999013,z,1,2.3208422999596223,None,589830,001,2024-10-15_11h18.00.426,Session6_MotorSequenceLearning,2024.1.5,None,2024-10-15 11h18.06.440869 +0530,
-50,x,,,,,13,3,55,0,707.1539899999043,,707.1415051999502,707.1539899999043,708.1682275999337,708.1682275999337,708.1682275999337,708.1682275999337,708.1682275999337,709.1686017999891,709.1686017999891,710.070920499973,x,1,0.8763360000448301,None,589830,001,2024-10-15_11h18.00.426,Session6_MotorSequenceLearning,2024.1.5,None,2024-10-15 11h18.06.440869 +0530,
150,v,,,,,14,0,56,1,710.10179529991,,710.0755010999274,710.10179529991,711.1015708999475,711.1015708999475,711.1015708999475,711.1015708999475,711.1347560998984,712.1015482000075,712.1015482000075,712.8043949999847,v,1,0.6756086000241339,None,589830,001,2024-10-15_11h18.00.426,Session6_MotorSequenceLearning,2024.1.5,None,2024-10-15 11h18.06.440869 +0530,
150,v,,,,,14,1,57,1,712.83449379995,,712.8078627999639,712.83449379995,713.8523675999604,713.8523675999604,713.8523675999604,713.8523675999604,713.8840938999783,714.8518292999361,714.8518292999361,715.5042181999888,v,1,0.6475157000822946,None,589830,001,2024-10-15_11h18.00.426,Session6_MotorSequenceLearning,2024.1.5,None,2024-10-15 11h18.06.440869 +0530,
-150,z,,,,,14,2,58,3,715.5341789999511,,715.5081952000037,715.5341789999511,716.5340089999372,716.5340089999372,716.5340089999372,716.5340089999372,716.5668547999812,717.5335389999673,717.5335389999673,718.2696284999838,z,1,0.723649499937892,None,589830,001,2024-10-15_11h18.00.426,Session6_MotorSequenceLearning,2024.1.5,None,2024-10-15 11h18.06.440869 +0530,
50,c,,,,,14,3,59,2,718.3002319999505,,718.2735694999574,718.3002319999505,719.3000563000096,719.3000563000096,719.3000563000096,719.3000563000096,719.3335630999645,720.3210737999761,720.3210737999761,721.1192900999449,c,1,0.7631397000513971,None,589830,001,2024-10-15_11h18.00.426,Session6_MotorSequenceLearning,2024.1.5,None,2024-10-15 11h18.06.440869 +0530,
50,c,,,,,15,0,60,2,721.1355995999184,,721.123049799935,721.1355995999184,722.1499707999174,722.1499707999174,722.1499707999174,722.1499707999174,722.1499707999174,723.1495918999426,723.1495918999426,723.719140799949,c,1,0.5600920999422669,None,589830,001,2024-10-15_11h18.00.426,Session6_MotorSequenceLearning,2024.1.5,None,2024-10-15 11h18.06.440869 +0530,
-150,z,,,,,15,1,61,3,723.7494435999542,,723.7230810999172,723.7494435999542,724.7492527998984,724.7492527998984,724.7492527998984,724.7492527998984,724.7681751999771,725.7670562999556,725.7670562999556,726.3690367999952,z,1,0.5946745000546798,None,589830,001,2024-10-15_11h18.00.426,Session6_MotorSequenceLearning,2024.1.5,None,2024-10-15 11h18.06.440869 +0530,
-50,x,,,,,15,2,62,0,726.3993776999414,,726.3726938999025,726.3993776999414,727.3990488999989,727.3990488999989,727.3990488999989,727.3990488999989,727.4323773999931,728.4157773999032,728.4157773999032,729.1519267999101,x,1,0.7039158999687061,None,589830,001,2024-10-15_11h18.00.426,Session6_MotorSequenceLearning,2024.1.5,None,2024-10-15 11h18.06.440869 +0530,
-50,x,,,,,15,3,63,0,729.167638599989,,729.1554750999203,729.167638599989,730.1819965000032,730.1819965000032,730.1819965000032,730.1819965000032,730.1819965000032,731.1820912999101,731.1820912999101,731.7188491999405,x,1,0.5330589999211952,None,589830,001,2024-10-15_11h18.00.426,Session6_MotorSequenceLearning,2024.1.5,None,2024-10-15 11h18.06.440869 +0530,
150,v,,,,,16,0,64,1,731.7484541999875,,731.722431799979,731.7484541999875,732.7485701999394,732.7485701999394,732.7485701999394,732.7485701999394,732.7814541999251,733.7481301999651,733.7481301999651,734.3180318999803,v,1,0.565606499905698,None,589830,001,2024-10-15_11h18.00.426,Session6_MotorSequenceLearning,2024.1.5,None,2024-10-15 11h18.06.440869 +0530,
50,c,,,,,16,1,65,2,734.3482579999836,,734.32178499992,734.3482579999836,735.3479603999294,735.3479603999294,735.3479603999294,735.3479603999294,735.3810953999637,736.3645924999146,736.3645924999146,736.9006416999036,c,1,0.5158213999820873,None,589830,001,2024-10-15_11h18.00.426,Session6_MotorSequenceLearning,2024.1.5,None,2024-10-15 11h18.06.440869 +0530,
50,c,,,,,16,2,66,2,736.9167434999254,,736.9042878999608,736.9167434999254,737.931018800009,737.931018800009,737.931018800009,737.931018800009,737.931018800009,738.9309834999731,738.9309834999731,739.5337744998978,c,1,0.5687712000217289,None,589830,001,2024-10-15_11h18.00.426,Session6_MotorSequenceLearning,2024.1.5,None,2024-10-15 11h18.06.440869 +0530,
150,v,,,,,16,3,67,1,739.5496957999421,,739.5375107999425,739.5496957999421,740.5641091999132,740.5641091999132,740.5641091999132,740.5641091999132,740.5641091999132,741.5642247999785,741.5642247999785,742.199946400011,v,1,0.6254076999612153,None,589830,001,2024-10-15_11h18.00.426,Session6_MotorSequenceLearning,2024.1.5,None,2024-10-15 11h18.06.440869 +0530,
-50,x,,,,,17,0,68,0,742.2304639999056,,742.2036374999443,742.2304639999056,743.2313543999335,743.2313543999335,743.2313543999335,743.2313543999335,743.2637703999644,744.2301445999183,744.2301445999183,745.232644499978,x,1,0.9752190000144765,None,589830,001,2024-10-15_11h18.00.426,Session6_MotorSequenceLearning,2024.1.5,None,2024-10-15 11h18.06.440869 +0530,
-50,x,,,,,17,1,69,0,745.2493563999888,,745.236374399974,745.2493563999888,746.2634366999846,746.2634366999846,746.2634366999846,746.2634366999846,746.2634366999846,747.2798154999036,747.2798154999036,748.0161804999225,x,1,0.7238997999811545,None,589830,001,2024-10-15_11h18.00.426,Session6_MotorSequenceLearning,2024.1.5,None,2024-10-15 11h18.06.440869 +0530,
-50,x,,,,,17,2,70,0,748.0460678999079,,748.0198810999282,748.0460678999079,749.0461788999382,749.0461788999382,749.0461788999382,749.0461788999382,749.0798820999917,750.0627491999185,750.0627491999185,750.6656391998986,x,1,0.5703876999905333,None,589830,001,2024-10-15_11h18.00.426,Session6_MotorSequenceLearning,2024.1.5,None,2024-10-15 11h18.06.440869 +0530,
150,v,,,,,17,3,71,1,750.6814733999781,,750.6693561999127,750.6814733999781,751.6960184999043,751.6960184999043,751.6960184999043,751.6960184999043,751.6960184999043,752.7124109999277,752.7124109999277,753.3487816000124,v,1,0.6099126000190154,None,589830,001,2024-10-15_11h18.00.426,Session6_MotorSequenceLearning,2024.1.5,None,2024-10-15 11h18.06.440869 +0530,
50,c,,,,,18,0,72,2,753.3647836999735,,753.3525114000076,753.3647836999735,754.3791387999663,754.3791387999663,754.3791387999663,754.3791387999663,754.3791387999663,755.3786357999779,755.3786357999779,756.0814654999413,c,1,0.6986996000632644,None,589830,001,2024-10-15_11h18.00.426,Session6_MotorSequenceLearning,2024.1.5,None,2024-10-15 11h18.06.440869 +0530,
