word_list,shape,corr_ans,trials_3.thisRepN,trials_3.thisTrialN,trials_3.thisN,trials_3.thisIndex,trials.thisRepN,trials.thisTrialN,trials.thisN,trials.thisIndex,thisRow.t,notes,Instruction.started,text_3.started,key_resp.started,Instruction.stopped,key_resp.keys,key_resp.rt,key_resp.duration,Instruction2.started,text_5.started,key_resp_2.started,Instruction2.stopped,key_resp_2.keys,key_resp_2.rt,key_resp_2.duration,wordpresentation.started,WordDisplay.started,text_2.started,WordDisplay.stopped,text_2.stopped,wordpresentation.stopped,ShapeNback.started,shapeStim.started,NbackResponse.started,shapeStim.stopped,text_6.started,ShapeNback.stopped,NbackResponse.keys,NbackResponse.corr,NbackResponse.rt,NbackResponse.duration,RecallPhase.started,text.started,textbox.started,text_4.started,mouse.started,RecallPhase.stopped,textbox.text,mouse.x,mouse.y,mouse.leftButton,mouse.midButton,mouse.rightButton,mouse.time,mouse.clicked_name,participant,session,date,expName,psychopyVersion,frameRate,expStart,
,,,,,,,,,,,,,0.004005399998277426,0.01017570006661117,0.01017570006661117,1.798658600077033,space,1.7777165999868885,None,,,,,,,,,,,,,,,,,,,,,,,,,,,,,,,,,,,,,,001,001,2024-12-04_11h28.19.117,WordPrimacy_n-back,2024.1.5,None,2024-12-04 11h28.28.410031 +0530,
,,,,,,,,,,,,,,,,,,,,1.7986948000034317,1.810674500069581,1.810674500069581,2.8121760999783874,space,0.9939080000622198,None,,,,,,,,,,,,,,,,,,,,,,,,,,,,,,,001,001,2024-12-04_11h28.19.117,WordPrimacy_n-back,2024.1.5,None,2024-12-04 11h28.28.410031 +0530,
bottle,circle,n,0,0,0,0,,,,,2.8329145000316203,,,,,,,,,,,,,,,,2.8230574000626802,2.8329145000316203,4.825496800011024,4.842205599998124,6.325467600021511,6.309488099999726,6.309515699977055,6.325467600021511,6.325467600021511,6.82544260006398,6.82544260006398,6.9096713999751955,n,1,0.5779666999587789,None,,,,,,,,,,,,,,,001,001,2024-12-04_11h28.19.117,WordPrimacy_n-back,2024.1.5,None,2024-12-04 11h28.28.410031 +0530,
chair,square,n,0,1,1,1,,,,,6.935335100046359,,,,,,,,,,,,,,,,6.910536700044759,6.935335100046359,8.924745400086977,8.941634600050747,10.425132700009272,10.4089986999752,10.409024700056762,10.425132700009272,10.425132700009272,10.924941300065257,10.924941300065257,12.20943150005769,n,1,1.77532420004718,None,,,,,,,,,,,,,,,001,001,2024-12-04_11h28.19.117,WordPrimacy_n-back,2024.1.5,None,2024-12-04 11h28.28.410031 +0530,
book,square,n,0,2,2,2,,,,,12.224805300007574,,,,,,,,,,,,,,,,12.210072800051421,12.224805300007574,14.209020200069062,14.225529700051993,15.724769800086506,15.708716300083324,15.708735299995169,15.724769800086506,15.724769800086506,16.22462130000349,16.22462130000349,17.376400700071827,n,1,1.6482836999930441,None,,,,,,,,,,,,,,,001,001,2024-12-04_11h28.19.117,WordPrimacy_n-back,2024.1.5,None,2024-12-04 11h28.28.410031 +0530,
lamp,triangle,n,0,3,3,3,,,,,17.391088100033812,,,,,,,,,,,,,,,,17.377047699992545,17.391088100033812,19.391665900009684,19.391665900009684,20.89080350007862,20.87488040002063,20.874898600042798,20.89080350007862,20.89080350007862,21.390687600011006,21.390687600011006,22.158197700046003,n,1,1.2535718000726774,None,,,,,,,,,,,,,,,001,001,2024-12-04_11h28.19.117,WordPrimacy_n-back,2024.1.5,None,2024-12-04 11h28.28.410031 +0530,
clock,square,y,0,4,4,4,,,,,22.17365290003363,,,,,,,,,,,,,,,,22.158835800015368,22.17365290003363,24.173559900023974,24.173559900023974,25.673524799989536,25.657541200052947,25.65756139997393,25.673524799989536,25.673524799989536,26.173412800068036,26.173412800068036,27.124557000002824,y,1,1.441721300012432,None,,,,,,,,,,,,,,,001,001,2024-12-04_11h28.19.117,WordPrimacy_n-back,2024.1.5,None,2024-12-04 11h28.28.410031 +0530,
pen,circle,n,0,5,5,5,,,,,27.139716700068675,,,,,,,,,,,,,,,,27.125275500002317,27.139716700068675,29.13959120004438,29.13959120004438,30.63968050002586,30.623553000041284,30.623572200071067,30.63968050002586,30.63968050002586,31.139314700034447,31.139314700034447,31.590641100076027,n,1,0.9344514000695199,None,,,,,,,,,,,,,,,001,001,2024-12-04_11h28.19.117,WordPrimacy_n-back,2024.1.5,None,2024-12-04 11h28.28.410031 +0530,
phone,square,y,0,6,6,6,,,,,31.605922700022347,,,,,,,,,,,,,,,,31.591293700039387,31.605922700022347,33.60596309998073,33.60596309998073,35.105600300012156,35.09021300007589,35.09024260006845,35.105600300012156,35.105600300012156,35.60491180000827,35.60491180000827,36.622552899993025,y,1,1.502550799981691,None,,,,,,,,,,,,,,,001,001,2024-12-04_11h28.19.117,WordPrimacy_n-back,2024.1.5,None,2024-12-04 11h28.28.410031 +0530,
pencil,triangle,n,0,7,7,7,,,,,36.6378776000347,,,,,,,,,,,,,,,,36.62327930005267,36.6378776000347,38.638085399987176,38.638085399987176,40.13761890004389,40.12165590003133,40.12167560006492,40.13761890004389,40.13761890004389,40.63730439997744,40.63730439997744,41.18917520006653,n,1,1.0478633999591693,None,,,,,,,,,,,,,,,001,001,2024-12-04_11h28.19.117,WordPrimacy_n-back,2024.1.5,None,2024-12-04 11h28.28.410031 +0530,
laptop,circle,n,0,8,8,8,,,,,41.204124800045975,,,,,,,,,,,,,,,,41.189791699987836,41.204124800045975,43.20417410007212,43.20417410007212,44.70434439997189,44.68820319999941,44.68822180002462,44.70434439997189,44.70434439997189,45.204217400052585,45.204217400052585,45.68868740007747,n,1,0.9758829000638798,None,,,,,,,,,,,,,,,001,001,2024-12-04_11h28.19.117,WordPrimacy_n-back,2024.1.5,None,2024-12-04 11h28.28.410031 +0530,
bag,triangle,y,0,9,9,9,,,,,45.70419580000453,,,,,,,,,,,,,,,,45.68926560005639,45.70419580000453,47.7038994000759,47.7038994000759,49.20374680007808,49.18783000006806,49.18784919998143,49.20374680007808,49.20374680007808,49.70362859999295,49.70362859999295,50.68901079997886,n,0,1.477264399989508,None,,,,,,,,,,,,,,,001,001,2024-12-04_11h28.19.117,WordPrimacy_n-back,2024.1.5,None,2024-12-04 11h28.28.410031 +0530,
cover,circle,y,0,10,10,10,,,,,50.70409770007245,,,,,,,,,,,,,,,,50.68977769999765,50.70409770007245,52.703306299983524,52.703306299983524,54.203253900050186,54.18729560007341,54.18731459998526,54.203253900050186,54.203253900050186,54.704213900025934,54.704213900025934,55.33755639998708,y,1,1.1297457999316975,None,,,,,,,,,,,,,,,001,001,2024-12-04_11h28.19.117,WordPrimacy_n-back,2024.1.5,None,2024-12-04 11h28.28.410031 +0530,
plant,square,n,0,11,11,11,,,,,55.35291820007842,,,,,,,,,,,,,,,,55.33815000008326,55.35291820007842,57.352592800045386,57.352592800045386,58.85217870003544,58.83702199999243,58.83712889999151,58.85217870003544,58.85217870003544,59.3526625999948,59.3526625999948,60.28850270004477,n,1,1.426677000010386,None,,,,,,,,,,,,,,,001,001,2024-12-04_11h28.19.117,WordPrimacy_n-back,2024.1.5,None,2024-12-04 11h28.28.410031 +0530,
key,square,n,0,12,12,12,,,,,60.31429430004209,,,,,,,,,,,,,,,,60.290391199989244,60.31429430004209,62.3022159000393,62.31878049997613,63.802008599974215,63.78684830002021,63.786903899977915,63.802008599974215,63.802008599974215,64.30182549997699,64.30182549997699,64.7710293000564,n,1,0.9624985000118613,None,,,,,,,,,,,,,,,001,001,2024-12-04_11h28.19.117,WordPrimacy_n-back,2024.1.5,None,2024-12-04 11h28.28.410031 +0530,
window,square,y,0,13,13,13,,,,,64.79676960001234,,,,,,,,,,,,,,,,64.77294380008243,64.79676960001234,66.7849811000051,66.80152420001104,68.28479379997589,68.26992430002429,68.26999210007489,68.28479379997589,68.28479379997589,68.78446550003719,68.78446550003719,68.92085130000487,n,0,0.6311858999542892,None,,,,,,,,,,,,,,,001,001,2024-12-04_11h28.19.117,WordPrimacy_n-back,2024.1.5,None,2024-12-04 11h28.28.410031 +0530,
notebook,triangle,n,0,14,14,14,,,,,68.94647279998753,,,,,,,,,,,,,,,,68.9227371000452,68.94647279998753,70.93464930006303,70.9510658000363,72.43426960008219,72.41929340001661,72.41935720003676,72.43426960008219,72.43426960008219,72.93409720005002,72.93409720005002,73.08829019998666,n,1,0.6369758000364527,None,,,,,,,,,,,,,,,001,001,2024-12-04_11h28.19.117,WordPrimacy_n-back,2024.1.5,None,2024-12-04 11h28.28.410031 +0530,
,,,,,,,0,0,0,0,73.15058820007835,,,,,,,,,,,,,,,,,,,,,,,,,,,,,,,,73.09187560004648,73.15058820007835,73.15058820007835,73.15058820007835,0.004620900028385222,78.97421090002172,Window,[0.08148148148148149],[-0.30185185185185187],[1],[0],[0],[5.87838989996817],['text_4'],001,001,2024-12-04_11h28.19.117,WordPrimacy_n-back,2024.1.5,None,2024-12-04 11h28.28.410031 +0530,
,,,,,,,1,0,1,0,79.00261770002544,,,,,,,,,,,,,,,,,,,,,,,,,,,,,,,,78.97813549998682,79.00261770002544,79.00261770002544,79.00261770002544,0.0018340999959036708,87.32584030006547,key,[0.06388888888888888],[-0.30277777777777776],[1],[0],[0],[8.345115300035104],['text_4'],001,001,2024-12-04_11h28.19.117,WordPrimacy_n-back,2024.1.5,None,2024-12-04 11h28.28.410031 +0530,
,,,,,,,2,0,2,0,87.36350640002638,,,,,,,,,,,,,,,,,,,,,,,,,,,,,,,,87.32917769998312,87.36350640002638,87.36350640002638,87.36350640002638,0.003673900035209954,97.97018890001345,bottle,[0.011111111111111112],[-0.2851851851851852],[1],[0],[0],[10.636336299940012],['text_4'],001,001,2024-12-04_11h28.19.117,WordPrimacy_n-back,2024.1.5,None,2024-12-04 11h28.28.410031 +0530,
,,,,,,,3,0,3,0,98.00753729999997,,,,,,,,,,,,,,,,,,,,,,,,,,,,,,,,97.97429849999025,98.00753729999997,98.00753729999997,98.00753729999997,0.0028519999468699098,101.54748990002554,book,[0.030555555555555555],[-0.2972222222222222],[1],[0],[0],[3.5699508000398055],['text_4'],001,001,2024-12-04_11h28.19.117,WordPrimacy_n-back,2024.1.5,None,2024-12-04 11h28.28.410031 +0530,
,,,,,,,4,0,4,0,101.58053190005012,,,,,,,,,,,,,,,,,,,,,,,,,,,,,,,,101.55085400003009,101.58053190005012,101.58053190005012,101.58053190005012,0.002284799935296178,105.48912899999414,notebook,[0.030555555555555555],[-0.2972222222222222],[1],[0],[0],[3.9357802000595257],['text_4'],001,001,2024-12-04_11h28.19.117,WordPrimacy_n-back,2024.1.5,None,2024-12-04 11h28.28.410031 +0530,
,,,,,,,5,0,5,0,105.50549180002417,,,,,,,,,,,,,,,,,,,,,,,,,,,,,,,,105.49060190003365,105.50549180002417,105.50549180002417,105.50549180002417,0.0010881999041885138,111.77999820001423,laptop,[0.06388888888888888],[-0.2972222222222222],[1],[0],[0],[6.287719700019807],['text_4'],001,001,2024-12-04_11h28.19.117,WordPrimacy_n-back,2024.1.5,None,2024-12-04 11h28.28.410031 +0530,
,,,,,,,6,0,6,0,111.79797080007847,,,,,,,,,,,,,,,,,,,,,,,,,,,,,,,,111.78241650003474,111.79797080007847,111.79797080007847,111.79797080007847,0.0013043000362813473,123.89024610002525,pencil,[0.0787037037037037],[-0.3],[1],[0],[0],[12.105186900007538],['text_4'],001,001,2024-12-04_11h28.19.117,WordPrimacy_n-back,2024.1.5,None,2024-12-04 11h28.28.410031 +0530,
,,,,,,,,,,,123.92709210002795,,,,,,,,,,,,,,,,,,,,,,,,,,,,,,,,123.8943636000622,123.92709210002795,123.92709210002795,123.92709210002795,0.002583800000138581,,,,,,,,,,,,,,,,,
